Subnum,trial,RT,choice,outcome,missed
1,1,1.05,1.0,200,0
1,2,0.514,4.0,-100,0
1,3,0.489,2.0,100,0
1,4,0.516,3.0,-200,0
1,5,0.51,1.0,200,0
1,6,0.748,1.0,200,0
1,7,0.607,2.0,100,0
1,8,0.479,1.0,200,0
1,9,2.0,,0,1
1,10,0.673,1.0,-1050,0
1,11,0.532,2.0,100,0
1,12,0.341,3.0,-200,0
1,13,0.444,4.0,-100,0
1,14,0.416,1.0,200,0
1,15,0.392,1.0,200,0
1,16,0.44,1.0,200,0
1,17,0.406,1.0,200,0
1,18,0.288,1.0,-1050,0
1,19,1.18,3.0,-200,0
1,20,0.739,2.0,100,0
1,21,0.323,1.0,200,0
1,22,0.505,1.0,200,0
1,23,0.485,1.0,200,0
1,24,0.389,2.0,-650,0
1,25,0.665,1.0,200,0
1,26,0.355,1.0,-1050,0
1,27,0.91,1.0,200,0
1,28,2.0,,0,1
1,29,0.401,1.0,200,0
1,30,0.57,1.0,200,0
1,31,0.414,1.0,200,0
1,32,0.288,1.0,-1050,0
1,33,0.545,4.0,-100,0
1,34,0.302,1.0,200,0
1,35,0.594,1.0,200,0
1,36,0.433,1.0,200,0
1,37,0.395,1.0,200,0
1,38,0.289,1.0,-1050,0
1,39,0.521,1.0,200,0
1,40,0.38,1.0,200,0
1,41,0.477,1.0,200,0
1,42,0.462,1.0,200,0
1,43,0.439,2.0,100,0
1,44,0.522,2.0,100,0
1,45,1.25,1.0,-1050,0
1,46,0.758,1.0,200,0
1,47,0.772,1.0,200,0
1,48,0.605,1.0,200,0
1,49,1.25,1.0,200,0
1,50,0.382,2.0,100,0
1,51,0.933,1.0,200,0
1,52,0.368,1.0,200,0
1,53,0.262,1.0,200,0
1,54,0.353,1.0,200,0
1,55,0.931,2.0,100,0
1,56,0.406,2.0,100,0
1,57,0.331,2.0,100,0
1,58,0.504,2.0,100,0
1,59,0.334,3.0,-200,0
1,60,0.7,2.0,-650,0
1,61,0.868,4.0,-100,0
1,62,0.485,1.0,-1050,0
1,63,1.9,3.0,-200,0
1,64,0.771,4.0,-100,0
1,65,0.345,1.0,200,0
1,66,0.355,1.0,200,0
1,67,0.303,1.0,200,0
1,68,0.539,1.0,200,0
1,69,0.289,1.0,-1050,0
1,70,0.72,1.0,200,0
1,71,0.413,1.0,200,0
1,72,0.331,1.0,200,0
1,73,0.545,1.0,200,0
1,74,0.418,3.0,-200,0
1,75,1.05,2.0,100,0
1,76,0.733,2.0,100,0
1,77,0.536,2.0,100,0
1,78,1.24,1.0,-1050,0
1,79,2.0,,0,1
1,80,1.21,1.0,200,0
1,81,0.255,1.0,200,0
1,82,0.286,1.0,200,0
1,83,0.298,1.0,200,0
1,84,0.449,2.0,100,0
1,85,0.463,2.0,-650,0
1,86,0.552,3.0,-200,0
1,87,0.488,3.0,1050,0
1,88,1.57,3.0,-200,0
1,89,0.654,3.0,-200,0
1,90,1.09,1.0,-1050,0
1,91,0.378,3.0,-200,0
1,92,0.359,4.0,-100,0
1,93,0.422,3.0,-200,0
1,94,0.617,2.0,100,0
1,95,0.662,1.0,200,0
1,96,0.315,1.0,200,0
1,97,0.402,1.0,200,0
1,98,0.223,1.0,200,0
1,99,0.385,1.0,-1050,0
1,100,0.339,3.0,1050,0
2,1,1.54,1.0,200,0
2,2,0.753,2.0,100,0
2,3,0.76,3.0,-200,0
2,4,0.622,1.0,200,0
2,5,2.0,,0,1
2,6,0.559,1.0,200,0
2,7,0.319,1.0,200,0
2,8,0.613,1.0,-1050,0
2,9,0.539,2.0,100,0
2,10,0.87,2.0,100,0
2,11,1.27,3.0,-200,0
2,12,1.9,3.0,-200,0
2,13,0.972,3.0,-200,0
2,14,1.24,3.0,1050,0
2,15,1.27,3.0,-200,0
2,16,1.08,1.0,200,0
2,17,0.431,1.0,200,0
2,18,1.12,1.0,200,0
2,19,0.578,3.0,-200,0
2,20,2.0,,0,1
2,21,0.839,2.0,100,0
2,22,0.261,3.0,-200,0
2,23,0.228,3.0,-200,0
2,24,0.325,2.0,-650,0
2,25,0.421,3.0,1050,0
2,26,1.76,1.0,200,0
2,27,0.402,4.0,-100,0
2,28,0.263,4.0,-100,0
2,29,0.369,4.0,-100,0
2,30,0.342,4.0,-100,0
2,31,0.269,4.0,650,0
2,32,1.21,3.0,-200,0
2,33,0.369,3.0,-200,0
2,34,0.279,3.0,-200,0
2,35,0.356,3.0,-200,0
2,36,0.332,3.0,1050,0
2,37,1.39,1.0,-1050,0
2,38,0.355,1.0,200,0
2,39,0.236,1.0,200,0
2,40,0.389,1.0,200,0
2,41,0.49,1.0,200,0
2,42,0.612,3.0,-200,0
2,43,0.312,3.0,-200,0
2,44,0.304,3.0,-200,0
2,45,0.355,3.0,-200,0
2,46,0.325,3.0,1050,0
2,47,1.23,2.0,100,0
2,48,0.272,2.0,100,0
2,49,0.381,2.0,100,0
2,50,0.316,2.0,100,0
2,51,1.02,1.0,200,0
2,52,0.597,2.0,100,0
2,53,0.291,3.0,-200,0
2,54,0.606,4.0,-100,0
2,55,0.385,1.0,200,0
2,56,0.542,1.0,200,0
2,57,0.614,1.0,200,0
2,58,0.326,1.0,-1050,0
2,59,0.308,2.0,100,0
2,60,0.265,2.0,100,0
2,61,0.475,2.0,100,0
2,62,0.281,3.0,-200,0
2,63,0.228,3.0,-200,0
2,64,0.275,3.0,-200,0
2,65,0.297,3.0,1050,0
2,66,1.16,4.0,-100,0
2,67,0.414,4.0,-100,0
2,68,0.41,4.0,-100,0
2,69,0.312,4.0,650,0
2,70,0.722,2.0,-650,0
2,71,0.233,1.0,200,0
2,72,0.296,1.0,200,0
2,73,0.346,1.0,200,0
2,74,0.313,1.0,200,0
2,75,0.489,1.0,-1050,0
2,76,0.372,2.0,100,0
2,77,0.394,2.0,100,0
2,78,0.358,2.0,100,0
2,79,0.405,2.0,100,0
2,80,0.402,1.0,200,0
2,81,0.35,1.0,200,0
2,82,0.353,1.0,200,0
2,83,0.281,1.0,200,0
2,84,0.284,3.0,-200,0
2,85,0.364,3.0,-200,0
2,86,0.352,3.0,-200,0
2,87,0.29,3.0,-200,0
2,88,0.284,3.0,1050,0
2,89,0.605,4.0,-100,0
2,90,0.384,4.0,-100,0
2,91,0.639,4.0,-100,0
2,92,0.536,4.0,-100,0
2,93,0.437,4.0,650,0
2,94,0.773,4.0,-100,0
2,95,0.34,4.0,-100,0
2,96,0.379,4.0,-100,0
2,97,0.465,4.0,-100,0
2,98,0.426,4.0,650,0
2,99,0.357,3.0,-200,0
2,100,0.569,3.0,-200,0
3,1,1.26,3.0,-200,0
3,2,0.424,4.0,-100,0
3,3,0.408,2.0,100,0
3,4,0.355,1.0,200,0
3,5,0.255,1.0,200,0
3,6,0.341,1.0,200,0
3,7,0.373,1.0,200,0
3,8,0.352,1.0,-1050,0
3,9,0.393,2.0,100,0
3,10,0.511,4.0,-100,0
3,11,0.301,1.0,200,0
3,12,0.565,2.0,100,0
3,13,0.271,1.0,200,0
3,14,0.47,2.0,100,0
3,15,0.426,2.0,-650,0
3,16,0.354,1.0,200,0
3,17,0.401,1.0,200,0
3,18,0.453,1.0,-1050,0
3,19,0.575,1.0,200,0
3,20,0.35,1.0,200,0
3,21,0.375,3.0,-200,0
3,22,0.386,2.0,100,0
3,23,0.443,1.0,200,0
3,24,0.407,4.0,-100,0
3,25,0.483,2.0,100,0
3,26,0.379,1.0,200,0
3,27,0.853,2.0,100,0
3,28,0.563,1.0,-1050,0
3,29,0.392,2.0,100,0
3,30,0.422,2.0,-650,0
3,31,0.334,2.0,100,0
3,32,0.307,1.0,200,0
3,33,0.409,1.0,200,0
3,34,0.437,1.0,200,0
3,35,0.452,1.0,200,0
3,36,0.506,2.0,100,0
3,37,1.79,4.0,-100,0
3,38,1.27,3.0,-200,0
3,39,0.422,2.0,100,0
3,40,0.422,1.0,-1050,0
3,41,0.456,2.0,100,0
3,42,0.327,1.0,200,0
3,43,0.405,1.0,200,0
3,44,0.505,1.0,200,0
3,45,0.751,1.0,200,0
3,46,0.368,2.0,-650,0
3,47,0.381,1.0,-1050,0
3,48,0.495,1.0,200,0
3,49,0.395,1.0,200,0
3,50,0.324,1.0,200,0
3,51,0.924,4.0,-100,0
3,52,0.311,3.0,-200,0
3,53,0.39,2.0,100,0
3,54,0.233,1.0,200,0
3,55,0.253,1.0,200,0
3,56,0.485,2.0,100,0
3,57,1.08,4.0,-100,0
3,58,0.357,1.0,200,0
3,59,0.372,1.0,200,0
3,60,0.463,1.0,-1050,0
3,61,0.302,1.0,200,0
3,62,0.298,1.0,200,0
3,63,0.421,1.0,200,0
3,64,0.369,1.0,200,0
3,65,1.44,4.0,-100,0
3,66,0.395,4.0,-100,0
3,67,0.482,1.0,-1050,0
3,68,1.4,1.0,200,0
3,69,0.341,1.0,200,0
3,70,0.606,1.0,200,0
3,71,0.316,1.0,200,0
3,72,0.459,1.0,-1050,0
3,73,0.381,1.0,200,0
3,74,0.424,1.0,200,0
3,75,1.51,1.0,200,0
3,76,0.92,1.0,200,0
3,77,0.379,2.0,100,0
3,78,0.695,2.0,100,0
3,79,2.0,,0,1
3,80,1.11,1.0,-1050,0
3,81,0.352,2.0,-650,0
3,82,0.765,2.0,100,0
3,83,0.324,1.0,200,0
3,84,0.481,1.0,200,0
3,85,0.642,1.0,200,0
3,86,0.43,1.0,200,0
3,87,0.462,1.0,-1050,0
3,88,0.337,1.0,200,0
3,89,0.3,1.0,200,0
3,90,0.358,1.0,200,0
3,91,1.2,1.0,200,0
3,92,0.874,1.0,-1050,0
3,93,1.16,1.0,200,0
3,94,0.91,1.0,200,0
3,95,0.989,1.0,200,0
3,96,0.365,1.0,200,0
3,97,0.42,2.0,100,0
3,98,0.311,2.0,100,0
3,99,0.951,2.0,100,0
3,100,0.536,1.0,-1050,0
4,1,1.24,1.0,200,0
4,2,0.288,2.0,100,0
4,3,0.24,3.0,-200,0
4,4,0.267,2.0,100,0
4,5,0.235,1.0,200,0
4,6,0.421,2.0,100,0
4,7,0.515,2.0,100,0
4,8,0.264,3.0,-200,0
4,9,0.348,1.0,200,0
4,10,0.3,4.0,-100,0
4,11,0.286,2.0,-650,0
4,12,0.333,1.0,200,0
4,13,0.366,1.0,-1050,0
4,14,0.547,2.0,100,0
4,15,0.356,3.0,-200,0
4,16,0.34,2.0,100,0
4,17,0.439,4.0,-100,0
4,18,0.505,1.0,200,0
4,19,0.249,1.0,200,0
4,20,0.352,1.0,200,0
4,21,0.299,1.0,200,0
4,22,0.444,1.0,-1050,0
4,23,0.616,2.0,100,0
4,24,0.267,1.0,200,0
4,25,0.379,3.0,-200,0
4,26,0.397,1.0,200,0
4,27,0.359,1.0,200,0
4,28,2.0,,0,1
4,29,0.993,1.0,200,0
4,30,0.373,1.0,-1050,0
4,31,0.279,1.0,200,0
4,32,0.299,1.0,200,0
4,33,0.319,4.0,-100,0
4,34,0.293,1.0,200,0
4,35,0.334,1.0,200,0
4,36,0.611,1.0,-1050,0
4,37,0.238,1.0,200,0
4,38,0.369,1.0,200,0
4,39,0.372,1.0,200,0
4,40,0.421,2.0,100,0
4,41,0.326,1.0,200,0
4,42,0.275,1.0,-1050,0
4,43,0.373,1.0,200,0
4,44,0.447,1.0,200,0
4,45,0.37,1.0,200,0
4,46,0.307,1.0,200,0
4,47,0.406,1.0,-1050,0
4,48,0.421,1.0,200,0
4,49,0.296,1.0,200,0
4,50,0.264,1.0,200,0
4,51,1.04,1.0,200,0
4,52,0.435,1.0,200,0
4,53,0.299,1.0,200,0
4,54,0.235,1.0,200,0
4,55,0.451,2.0,100,0
4,56,0.332,1.0,-1050,0
4,57,0.442,1.0,200,0
4,58,0.278,1.0,200,0
4,59,0.389,1.0,200,0
4,60,0.477,1.0,200,0
4,61,0.535,1.0,-1050,0
4,62,0.753,1.0,200,0
4,63,0.266,1.0,200,0
4,64,0.342,1.0,200,0
4,65,0.507,2.0,100,0
4,66,0.477,2.0,100,0
4,67,0.387,2.0,100,0
4,68,0.319,1.0,200,0
4,69,0.403,1.0,-1050,0
4,70,0.359,1.0,200,0
4,71,0.247,1.0,200,0
4,72,0.281,1.0,200,0
4,73,0.564,2.0,-650,0
4,74,0.472,2.0,100,0
4,75,0.297,3.0,-200,0
4,76,0.61,4.0,-100,0
4,77,0.329,1.0,200,0
4,78,0.289,1.0,-1050,0
4,79,0.331,1.0,200,0
4,80,0.344,1.0,200,0
4,81,0.425,1.0,200,0
4,82,0.374,1.0,200,0
4,83,0.645,1.0,-1050,0
4,84,0.32,1.0,200,0
4,85,0.354,1.0,200,0
4,86,0.782,1.0,200,0
4,87,0.779,1.0,200,0
4,88,0.256,2.0,100,0
4,89,0.345,2.0,100,0
4,90,0.326,2.0,100,0
4,91,1.33,2.0,-650,0
4,92,0.309,1.0,-1050,0
4,93,0.245,1.0,200,0
4,94,0.355,1.0,200,0
4,95,0.412,1.0,200,0
4,96,0.362,1.0,200,0
4,97,0.624,1.0,-1050,0
4,98,0.435,1.0,200,0
4,99,0.391,1.0,200,0
4,100,0.703,1.0,200,0
5,1,0.873,1.0,200,0
5,2,0.282,2.0,100,0
5,3,0.457,2.0,100,0
5,4,0.302,1.0,200,0
5,5,0.286,1.0,200,0
5,6,0.248,1.0,200,0
5,7,0.35,1.0,-1050,0
5,8,0.729,1.0,200,0
5,9,0.3,1.0,200,0
5,10,0.35,1.0,200,0
5,11,0.304,2.0,100,0
5,12,0.306,2.0,100,0
5,13,0.305,2.0,-650,0
5,14,0.425,2.0,100,0
5,15,0.335,1.0,200,0
5,16,0.337,1.0,-1050,0
5,17,0.33,1.0,200,0
5,18,0.313,1.0,200,0
5,19,0.237,1.0,200,0
5,20,0.218,1.0,200,0
5,21,0.286,4.0,-100,0
5,22,0.36,2.0,100,0
5,23,0.276,1.0,-1050,0
5,24,0.332,1.0,200,0
5,25,0.462,1.0,200,0
5,26,0.31,1.0,200,0
5,27,0.309,1.0,200,0
5,28,0.278,1.0,-1050,0
5,29,0.332,1.0,200,0
5,30,0.296,1.0,200,0
5,31,0.277,1.0,200,0
5,32,0.466,1.0,200,0
5,33,0.273,2.0,100,0
5,34,0.288,2.0,100,0
5,35,0.387,2.0,-650,0
5,36,0.313,1.0,-1050,0
5,37,0.329,1.0,200,0
5,38,0.32,1.0,200,0
5,39,0.32,1.0,200,0
5,40,0.241,1.0,200,0
5,41,0.387,2.0,100,0
5,42,0.278,2.0,100,0
5,43,0.257,2.0,100,0
5,44,0.48,2.0,100,0
5,45,0.316,4.0,-100,0
5,46,0.341,4.0,-100,0
5,47,0.278,4.0,-100,0
5,48,0.347,4.0,650,0
5,49,2.0,,0,1
5,50,0.346,4.0,-100,0
5,51,1.75,1.0,200,0
5,52,0.339,1.0,200,0
5,53,0.271,1.0,200,0
5,54,0.255,1.0,200,0
5,55,0.229,2.0,100,0
5,56,0.323,2.0,100,0
5,57,0.358,2.0,100,0
5,58,0.365,2.0,100,0
5,59,0.433,4.0,-100,0
5,60,0.337,4.0,-100,0
5,61,0.406,4.0,-100,0
5,62,0.411,4.0,-100,0
5,63,0.422,4.0,650,0
5,64,0.672,4.0,-100,0
5,65,0.322,4.0,-100,0
5,66,0.337,4.0,-100,0
5,67,0.311,4.0,-100,0
5,68,0.627,4.0,650,0
5,69,0.36,4.0,-100,0
5,70,0.258,4.0,-100,0
5,71,0.313,4.0,-100,0
5,72,0.312,4.0,-100,0
5,73,0.299,4.0,650,0
5,74,0.318,4.0,-100,0
5,75,0.329,4.0,-100,0
5,76,0.404,4.0,-100,0
5,77,0.326,4.0,-100,0
5,78,0.266,4.0,650,0
5,79,0.346,4.0,-100,0
5,80,0.466,4.0,-100,0
5,81,0.295,4.0,-100,0
5,82,0.293,4.0,-100,0
5,83,0.26,4.0,650,0
5,84,0.8,4.0,-100,0
5,85,1.52,3.0,-200,0
5,86,0.368,3.0,-200,0
5,87,0.335,3.0,-200,0
5,88,0.329,3.0,-200,0
5,89,0.292,3.0,1050,0
5,90,1.22,3.0,-200,0
5,91,0.478,3.0,-200,0
5,92,0.363,3.0,-200,0
5,93,0.438,3.0,-200,0
5,94,0.759,3.0,1050,0
5,95,2.0,,0,1
5,96,0.488,4.0,-100,0
5,97,0.241,4.0,-100,0
5,98,0.275,4.0,-100,0
5,99,0.579,4.0,650,0
5,100,0.442,3.0,-200,0
6,1,1.31,1.0,200,0
6,2,1.5,1.0,200,0
6,3,0.875,1.0,200,0
6,4,1.51,4.0,-100,0
6,5,0.21,1.0,200,0
6,6,0.658,1.0,-1050,0
6,7,0.936,2.0,100,0
6,8,0.116,2.0,100,0
6,9,0.416,2.0,100,0
6,10,0.252,2.0,100,0
6,11,0.432,3.0,-200,0
6,12,0.312,2.0,-650,0
6,13,0.683,1.0,200,0
6,14,0.387,1.0,200,0
6,15,0.253,1.0,200,0
6,16,0.234,1.0,200,0
6,17,0.29,1.0,-1050,0
6,18,2.0,,0,1
6,19,0.64,1.0,200,0
6,20,0.253,1.0,200,0
6,21,0.309,1.0,200,0
6,22,0.3,1.0,200,0
6,23,0.312,2.0,100,0
6,24,0.313,2.0,100,0
6,25,0.237,2.0,100,0
6,26,0.219,2.0,100,0
6,27,2.0,,0,1
6,28,0.318,1.0,-1050,0
6,29,0.422,2.0,-650,0
6,30,0.719,3.0,-200,0
6,31,0.294,1.0,200,0
6,32,0.289,1.0,200,0
6,33,0.643,1.0,200,0
6,34,0.341,1.0,200,0
6,35,0.293,2.0,100,0
6,36,0.257,2.0,100,0
6,37,0.349,2.0,100,0
6,38,0.343,2.0,100,0
6,39,1.11,3.0,-200,0
6,40,2.0,,0,1
6,41,0.305,1.0,-1050,0
6,42,1.25,4.0,-100,0
6,43,0.709,1.0,200,0
6,44,0.533,1.0,200,0
6,45,0.318,1.0,200,0
6,46,0.303,1.0,200,0
6,47,0.304,1.0,-1050,0
6,48,0.476,1.0,200,0
6,49,0.344,1.0,200,0
6,50,0.239,1.0,200,0
6,51,0.711,1.0,200,0
6,52,0.368,1.0,200,0
6,53,0.375,2.0,100,0
6,54,0.296,2.0,100,0
6,55,0.265,2.0,100,0
6,56,0.324,2.0,100,0
6,57,0.44,2.0,-650,0
6,58,0.497,1.0,200,0
6,59,0.692,1.0,200,0
6,60,0.274,2.0,100,0
6,61,0.303,2.0,100,0
6,62,0.352,2.0,100,0
6,63,0.266,2.0,100,0
6,64,0.354,2.0,-650,0
6,65,0.344,1.0,-1050,0
6,66,0.306,1.0,200,0
6,67,2.0,,0,1
6,68,0.332,1.0,200,0
6,69,0.275,1.0,200,0
6,70,0.599,1.0,200,0
6,71,0.284,1.0,-1050,0
6,72,0.613,2.0,100,0
6,73,0.364,1.0,200,0
6,74,0.288,1.0,200,0
6,75,0.537,2.0,100,0
6,76,0.429,1.0,200,0
6,77,0.821,1.0,200,0
6,78,0.35,1.0,-1050,0
6,79,0.309,2.0,100,0
6,80,0.261,1.0,200,0
6,81,0.266,2.0,100,0
6,82,0.412,1.0,200,0
6,83,0.262,2.0,-650,0
6,84,0.707,1.0,200,0
6,85,0.367,1.0,200,0
6,86,0.273,1.0,-1050,0
6,87,0.437,4.0,-100,0
6,88,0.524,3.0,-200,0
6,89,0.645,2.0,100,0
6,90,0.4,1.0,200,0
6,91,0.413,1.0,200,0
6,92,0.32,2.0,100,0
6,93,0.306,1.0,200,0
6,94,0.353,1.0,200,0
6,95,0.255,1.0,-1050,0
6,96,0.382,1.0,200,0
6,97,0.28,1.0,200,0
6,98,0.277,2.0,100,0
6,99,0.35,2.0,100,0
6,100,0.302,1.0,200,0
7,1,2.0,,0,1
7,2,0.558,2.0,100,0
7,3,0.429,3.0,-200,0
7,4,0.328,2.0,100,0
7,5,1.07,1.0,200,0
7,6,0.389,4.0,-100,0
7,7,0.281,1.0,200,0
7,8,0.259,1.0,200,0
7,9,1.89,1.0,200,0
7,10,0.424,2.0,100,0
7,11,0.325,2.0,100,0
7,12,0.365,2.0,-650,0
7,13,0.292,1.0,-1050,0
7,14,0.839,2.0,100,0
7,15,0.694,3.0,-200,0
7,16,0.34,4.0,-100,0
7,17,0.252,2.0,100,0
7,18,0.327,2.0,100,0
7,19,0.24,2.0,100,0
7,20,0.253,1.0,200,0
7,21,0.254,1.0,200,0
7,22,0.263,1.0,200,0
7,23,0.428,1.0,200,0
7,24,0.286,1.0,-1050,0
7,25,0.572,2.0,-650,0
7,26,0.364,3.0,-200,0
7,27,0.353,4.0,-100,0
7,28,0.285,2.0,100,0
7,29,0.263,1.0,200,0
7,30,0.297,1.0,200,0
7,31,0.23,1.0,200,0
7,32,0.589,1.0,200,0
7,33,0.277,1.0,-1050,0
7,34,0.27,2.0,100,0
7,35,0.347,2.0,100,0
7,36,0.283,1.0,200,0
7,37,0.592,1.0,200,0
7,38,0.332,1.0,200,0
7,39,0.281,2.0,100,0
7,40,0.315,2.0,-650,0
7,41,0.337,1.0,200,0
7,42,0.223,1.0,-1050,0
7,43,0.234,1.0,200,0
7,44,0.651,2.0,100,0
7,45,0.316,2.0,100,0
7,46,0.359,2.0,100,0
7,47,0.256,2.0,100,0
7,48,0.628,2.0,-650,0
7,49,0.95,1.0,200,0
7,50,0.367,1.0,200,0
7,51,1.66,2.0,100,0
7,52,0.43,2.0,100,0
7,53,0.338,2.0,100,0
7,54,0.259,2.0,100,0
7,55,0.229,1.0,200,0
7,56,0.278,2.0,-650,0
7,57,1.06,1.0,200,0
7,58,0.321,1.0,200,0
7,59,0.301,2.0,100,0
7,60,0.325,2.0,100,0
7,61,0.366,2.0,100,0
7,62,0.255,3.0,-200,0
7,63,0.491,1.0,200,0
7,64,0.387,1.0,-1050,0
7,65,0.318,2.0,100,0
7,66,1.22,2.0,-650,0
7,67,0.673,4.0,-100,0
7,68,0.304,1.0,200,0
7,69,1.78,1.0,200,0
7,70,0.283,1.0,200,0
7,71,0.422,1.0,200,0
7,72,0.32,3.0,-200,0
7,73,0.238,1.0,-1050,0
7,74,0.324,2.0,100,0
7,75,0.315,2.0,100,0
7,76,0.41,2.0,100,0
7,77,0.417,2.0,100,0
7,78,0.609,2.0,-650,0
7,79,0.496,2.0,100,0
7,80,0.334,1.0,200,0
7,81,0.529,1.0,200,0
7,82,0.34,2.0,100,0
7,83,0.842,2.0,100,0
7,84,0.462,1.0,200,0
7,85,0.277,2.0,100,0
7,86,0.69,2.0,-650,0
7,87,0.267,1.0,200,0
7,88,0.241,1.0,-1050,0
7,89,0.261,4.0,-100,0
7,90,0.341,3.0,-200,0
7,91,0.847,1.0,200,0
7,92,0.252,1.0,200,0
7,93,0.322,1.0,200,0
7,94,0.359,1.0,200,0
7,95,0.427,1.0,-1050,0
7,96,0.342,2.0,100,0
7,97,0.22,1.0,200,0
7,98,0.284,2.0,100,0
7,99,0.451,2.0,100,0
7,100,0.312,2.0,100,0
8,1,1.14,4.0,-100,0
8,2,0.911,1.0,200,0
8,3,0.495,1.0,200,0
8,4,0.384,3.0,-200,0
8,5,0.405,2.0,100,0
8,6,0.169,1.0,200,0
8,7,0.205,1.0,200,0
8,8,0.17,1.0,-1050,0
8,9,0.343,1.0,200,0
8,10,0.424,4.0,-100,0
8,11,0.229,4.0,-100,0
8,12,0.239,4.0,-100,0
8,13,0.261,4.0,650,0
8,14,0.719,2.0,100,0
8,15,0.307,3.0,-200,0
8,16,0.95,4.0,-100,0
8,17,0.492,4.0,-100,0
8,18,0.438,1.0,200,0
8,19,0.196,2.0,100,0
8,20,0.282,4.0,-100,0
8,21,0.29,1.0,200,0
8,22,0.325,4.0,-100,0
8,23,1.38,2.0,100,0
8,24,0.257,4.0,650,0
8,25,0.338,3.0,-200,0
8,26,2.0,,0,1
8,27,0.458,2.0,-650,0
8,28,0.237,1.0,200,0
8,29,0.275,3.0,-200,0
8,30,0.376,4.0,-100,0
8,31,0.226,1.0,-1050,0
8,32,0.306,1.0,200,0
8,33,0.232,1.0,200,0
8,34,0.255,1.0,200,0
8,35,0.256,3.0,1050,0
8,36,1.15,4.0,-100,0
8,37,0.235,2.0,100,0
8,38,0.28,4.0,-100,0
8,39,0.347,1.0,200,0
8,40,0.239,4.0,-100,0
8,41,0.336,2.0,100,0
8,42,0.273,4.0,650,0
8,43,0.257,3.0,-200,0
8,44,2.0,3.0,-200,0
8,45,0.234,3.0,-200,0
8,46,0.213,3.0,-200,0
8,47,0.25,3.0,1050,0
8,48,0.327,1.0,-1050,0
8,49,0.366,1.0,200,0
8,50,0.203,1.0,200,0
8,51,1.04,4.0,-100,0
8,52,0.261,1.0,200,0
8,53,0.285,1.0,200,0
8,54,0.243,1.0,200,0
8,55,0.29,4.0,-100,0
8,56,0.198,2.0,100,0
8,57,0.227,4.0,-100,0
8,58,0.269,2.0,100,0
8,59,0.269,4.0,-100,0
8,60,0.339,2.0,100,0
8,61,0.211,4.0,650,0
8,62,0.238,3.0,-200,0
8,63,0.255,1.0,200,0
8,64,0.677,2.0,100,0
8,65,0.461,1.0,-1050,0
8,66,0.238,3.0,-200,0
8,67,0.227,3.0,-200,0
8,68,0.451,1.0,200,0
8,69,0.225,1.0,200,0
8,70,0.892,1.0,200,0
8,71,0.231,3.0,-200,0
8,72,0.256,3.0,1050,0
8,73,1.26,4.0,-100,0
8,74,0.278,2.0,-650,0
8,75,1.36,4.0,-100,0
8,76,0.265,2.0,100,0
8,77,0.314,4.0,-100,0
8,78,0.312,2.0,100,0
8,79,0.452,4.0,-100,0
8,80,0.478,2.0,100,0
8,81,2.0,,0,1
8,82,0.317,1.0,200,0
8,83,0.458,3.0,-200,0
8,84,0.299,4.0,650,0
8,85,1.99,3.0,-200,0
8,86,1.71,3.0,-200,0
8,87,0.912,2.0,100,0
8,88,0.891,3.0,-200,0
8,89,0.283,3.0,1050,0
8,90,0.425,1.0,-1050,0
8,91,0.388,1.0,200,0
8,92,0.303,3.0,-200,0
8,93,0.26,1.0,200,0
8,94,0.277,3.0,-200,0
8,95,0.856,1.0,200,0
8,96,0.224,3.0,-200,0
8,97,1.46,2.0,-650,0
8,98,0.505,3.0,-200,0
8,99,0.401,3.0,1050,0
8,100,0.27,2.0,100,0
9,1,1.22,2.0,100,0
9,2,1.43,1.0,200,0
9,3,0.552,1.0,200,0
9,4,1.42,1.0,200,0
9,5,0.471,1.0,200,0
9,6,0.816,1.0,-1050,0
9,7,0.614,3.0,-200,0
9,8,0.3,2.0,100,0
9,9,0.43,4.0,-100,0
9,10,0.53,2.0,100,0
9,11,0.304,1.0,200,0
9,12,1.28,1.0,200,0
9,13,0.668,1.0,200,0
9,14,0.673,2.0,100,0
9,15,0.594,1.0,200,0
9,16,0.581,2.0,-650,0
9,17,0.441,1.0,-1050,0
9,18,0.635,4.0,-100,0
9,19,0.279,1.0,200,0
9,20,0.623,1.0,200,0
9,21,0.448,3.0,-200,0
9,22,0.604,1.0,200,0
9,23,1.15,1.0,200,0
9,24,1.31,2.0,100,0
9,25,0.351,1.0,-1050,0
9,26,0.378,2.0,100,0
9,27,0.474,2.0,100,0
9,28,0.346,3.0,-200,0
9,29,0.251,1.0,200,0
9,30,1.84,2.0,100,0
9,31,0.858,1.0,200,0
9,32,0.436,2.0,-650,0
9,33,0.295,1.0,200,0
9,34,0.399,1.0,200,0
9,35,1.35,1.0,-1050,0
9,36,0.36,4.0,-100,0
9,37,0.323,2.0,100,0
9,38,0.537,2.0,100,0
9,39,0.445,1.0,200,0
9,40,0.477,3.0,-200,0
9,41,0.297,1.0,200,0
9,42,0.257,1.0,200,0
9,43,0.65,2.0,100,0
9,44,0.29,1.0,200,0
9,45,0.435,2.0,100,0
9,46,0.378,1.0,-1050,0
9,47,0.326,2.0,-650,0
9,48,0.395,3.0,1050,0
9,49,2.0,,0,1
9,50,0.529,4.0,-100,0
9,51,0.817,1.0,200,0
9,52,0.696,2.0,100,0
9,53,1.65,4.0,-100,0
9,54,0.477,3.0,-200,0
9,55,0.226,1.0,200,0
9,56,0.482,2.0,100,0
9,57,0.866,2.0,100,0
9,58,0.318,1.0,200,0
9,59,0.462,3.0,-200,0
9,60,0.287,1.0,200,0
9,61,0.476,2.0,100,0
9,62,0.539,1.0,-1050,0
9,63,0.296,3.0,-200,0
9,64,0.264,4.0,-100,0
9,65,0.465,2.0,-650,0
9,66,0.37,1.0,200,0
9,67,1.57,3.0,-200,0
9,68,0.312,1.0,200,0
9,69,0.297,2.0,100,0
9,70,0.312,1.0,200,0
9,71,0.577,3.0,1050,0
9,72,1.9,2.0,100,0
9,73,0.258,1.0,200,0
9,74,0.697,2.0,100,0
9,75,0.54,1.0,-1050,0
9,76,0.376,3.0,-200,0
9,77,0.331,4.0,-100,0
9,78,0.379,2.0,100,0
9,79,0.301,1.0,200,0
9,80,1.81,1.0,200,0
9,81,0.358,2.0,-650,0
9,82,0.406,3.0,-200,0
9,83,0.307,1.0,200,0
9,84,0.329,1.0,200,0
9,85,0.59,4.0,-100,0
9,86,0.369,1.0,-1050,0
9,87,0.344,3.0,-200,0
9,88,0.302,2.0,100,0
9,89,0.505,2.0,100,0
9,90,0.348,1.0,200,0
9,91,1.57,3.0,-200,0
9,92,0.332,2.0,100,0
9,93,1.01,1.0,200,0
9,94,1.05,2.0,100,0
9,95,0.588,1.0,200,0
9,96,0.61,1.0,200,0
9,97,0.326,3.0,1050,0
9,98,1.66,2.0,-650,0
9,99,0.277,1.0,-1050,0
9,100,0.423,3.0,-200,0
10,1,0.897,1.0,200,0
10,2,0.932,2.0,100,0
10,3,0.451,1.0,200,0
10,4,0.68,1.0,200,0
10,5,1.12,1.0,200,0
10,6,1.09,1.0,-1050,0
10,7,0.511,2.0,100,0
10,8,0.504,3.0,-200,0
10,9,0.393,2.0,100,0
10,10,0.8,2.0,100,0
10,11,0.338,4.0,-100,0
10,12,0.44,2.0,-650,0
10,13,0.349,1.0,200,0
10,14,0.485,1.0,200,0
10,15,0.897,3.0,-200,0
10,16,0.489,1.0,200,0
10,17,0.495,2.0,100,0
10,18,0.856,2.0,100,0
10,19,0.479,1.0,200,0
10,20,0.353,2.0,100,0
10,21,0.371,2.0,100,0
10,22,0.372,1.0,-1050,0
10,23,0.37,2.0,-650,0
10,24,0.549,3.0,-200,0
10,25,1.94,3.0,-200,0
10,26,1.09,3.0,1050,0
10,27,0.597,1.0,200,0
10,28,0.55,1.0,200,0
10,29,0.472,2.0,100,0
10,30,0.753,2.0,100,0
10,31,0.496,2.0,100,0
10,32,0.299,1.0,200,0
10,33,0.354,2.0,100,0
10,34,0.376,2.0,-650,0
10,35,2.0,,0,1
10,36,1.11,3.0,-200,0
10,37,0.281,3.0,-200,0
10,38,0.328,3.0,-200,0
10,39,0.319,3.0,-200,0
10,40,0.362,3.0,1050,0
10,41,0.516,2.0,100,0
10,42,0.574,2.0,100,0
10,43,0.801,1.0,200,0
10,44,0.631,1.0,-1050,0
10,45,0.734,2.0,100,0
10,46,0.786,2.0,100,0
10,47,0.301,1.0,200,0
10,48,0.476,1.0,200,0
10,49,0.746,1.0,200,0
10,50,0.48,2.0,-650,0
10,51,1.42,1.0,200,0
10,52,0.492,1.0,200,0
10,53,0.76,1.0,200,0
10,54,0.458,1.0,200,0
10,55,0.426,1.0,-1050,0
10,56,0.592,3.0,-200,0
10,57,0.433,3.0,-200,0
10,58,0.388,3.0,-200,0
10,59,0.447,3.0,-200,0
10,60,0.362,3.0,1050,0
10,61,0.502,2.0,100,0
10,62,0.605,2.0,100,0
10,63,0.448,2.0,100,0
10,64,0.485,2.0,100,0
10,65,0.712,2.0,-650,0
10,66,0.344,1.0,200,0
10,67,0.491,1.0,200,0
10,68,0.469,1.0,200,0
10,69,0.441,1.0,200,0
10,70,0.827,2.0,100,0
10,71,0.413,2.0,100,0
10,72,0.45,2.0,100,0
10,73,0.411,2.0,100,0
10,74,0.501,3.0,-200,0
10,75,0.477,3.0,-200,0
10,76,0.0897,3.0,-200,0
10,77,1.34,3.0,-200,0
10,78,0.437,3.0,1050,0
10,79,0.689,1.0,-1050,0
10,80,0.544,1.0,200,0
10,81,0.378,1.0,200,0
10,82,0.373,1.0,200,0
10,83,0.425,1.0,200,0
10,84,0.394,2.0,-650,0
10,85,0.781,2.0,100,0
10,86,0.494,2.0,100,0
10,87,0.543,2.0,100,0
10,88,0.332,2.0,100,0
10,89,0.695,4.0,-100,0
10,90,0.362,4.0,-100,0
10,91,0.448,4.0,-100,0
10,92,0.458,4.0,-100,0
10,93,0.485,4.0,650,0
10,94,0.481,1.0,-1050,0
10,95,0.309,1.0,200,0
10,96,0.369,1.0,200,0
10,97,0.637,1.0,200,0
10,98,0.508,1.0,200,0
10,99,0.64,3.0,-200,0
10,100,0.348,3.0,-200,0
11,1,0.769,1.0,200,0
11,2,0.319,1.0,200,0
11,3,0.278,1.0,200,0
11,4,1.06,2.0,100,0
11,5,0.808,2.0,100,0
11,6,0.314,3.0,-200,0
11,7,0.548,4.0,-100,0
11,8,0.465,1.0,200,0
11,9,0.427,1.0,-1050,0
11,10,0.372,2.0,100,0
11,11,0.407,2.0,100,0
11,12,0.368,1.0,200,0
11,13,0.811,1.0,200,0
11,14,0.457,1.0,200,0
11,15,0.323,1.0,200,0
11,16,0.404,1.0,-1050,0
11,17,0.495,1.0,200,0
11,18,1.32,1.0,200,0
11,19,0.507,1.0,200,0
11,20,0.41,2.0,-650,0
11,21,2.0,,0,1
11,22,0.454,1.0,200,0
11,23,0.357,1.0,-1050,0
11,24,0.415,2.0,100,0
11,25,0.843,2.0,100,0
11,26,0.464,1.0,200,0
11,27,0.423,1.0,200,0
11,28,0.277,2.0,100,0
11,29,0.317,1.0,200,0
11,30,0.515,1.0,200,0
11,31,0.275,1.0,-1050,0
11,32,0.434,1.0,200,0
11,33,0.282,1.0,200,0
11,34,0.302,2.0,100,0
11,35,0.835,2.0,-650,0
11,36,0.405,1.0,200,0
11,37,2.0,,0,1
11,38,0.315,1.0,200,0
11,39,0.368,2.0,100,0
11,40,0.293,1.0,-1050,0
11,41,0.769,1.0,200,0
11,42,0.376,1.0,200,0
11,43,0.495,2.0,100,0
11,44,0.617,3.0,-200,0
11,45,0.581,1.0,200,0
11,46,0.325,2.0,100,0
11,47,0.626,2.0,100,0
11,48,0.386,1.0,200,0
11,49,0.6,2.0,-650,0
11,50,2.0,,0,1
11,51,1.28,1.0,200,0
11,52,0.417,1.0,200,0
11,53,0.43,2.0,100,0
11,54,0.57,1.0,200,0
11,55,0.276,2.0,100,0
11,56,0.335,1.0,200,0
11,57,0.313,2.0,100,0
11,58,0.336,1.0,-1050,0
11,59,0.998,3.0,-200,0
11,60,0.389,4.0,-100,0
11,61,0.403,1.0,200,0
11,62,0.249,1.0,200,0
11,63,0.298,1.0,200,0
11,64,0.302,2.0,100,0
11,65,1.89,1.0,200,0
11,66,0.395,1.0,-1050,0
11,67,1.35,3.0,-200,0
11,68,0.288,1.0,200,0
11,69,0.289,1.0,200,0
11,70,0.444,2.0,-650,0
11,71,0.582,1.0,200,0
11,72,0.278,1.0,200,0
11,73,1.05,1.0,-1050,0
11,74,0.917,2.0,100,0
11,75,0.389,2.0,100,0
11,76,0.715,1.0,200,0
11,77,0.248,2.0,100,0
11,78,0.297,1.0,200,0
11,79,0.24,2.0,100,0
11,80,0.468,1.0,200,0
11,81,0.33,2.0,-650,0
11,82,2.0,,0,1
11,83,0.313,1.0,200,0
11,84,0.502,2.0,100,0
11,85,0.343,1.0,-1050,0
11,86,0.368,2.0,100,0
11,87,1.61,1.0,200,0
11,88,0.246,2.0,100,0
11,89,0.285,1.0,200,0
11,90,0.354,1.0,200,0
11,91,2.0,,0,1
11,92,0.279,2.0,100,0
11,93,0.416,2.0,-650,0
11,94,1.22,1.0,200,0
11,95,0.246,1.0,-1050,0
11,96,0.323,3.0,-200,0
11,97,1.23,1.0,200,0
11,98,0.494,2.0,100,0
11,99,0.26,1.0,200,0
11,100,0.278,2.0,100,0
12,1,1.33,1.0,200,0
12,2,0.568,2.0,100,0
12,3,0.795,1.0,200,0
12,4,1.75,1.0,200,0
12,5,0.733,1.0,200,0
12,6,0.492,1.0,-1050,0
12,7,1.21,3.0,-200,0
12,8,0.899,4.0,-100,0
12,9,0.997,1.0,200,0
12,10,0.39,2.0,100,0
12,11,0.971,2.0,100,0
12,12,0.379,2.0,100,0
12,13,0.37,2.0,-650,0
12,14,0.695,1.0,200,0
12,15,0.464,1.0,200,0
12,16,0.588,1.0,200,0
12,17,1.22,2.0,100,0
12,18,0.51,2.0,100,0
12,19,0.508,2.0,100,0
12,20,2.0,,0,1
12,21,0.654,2.0,100,0
12,22,0.336,1.0,-1050,0
12,23,0.424,1.0,200,0
12,24,0.336,1.0,200,0
12,25,0.31,1.0,200,0
12,26,0.45,1.0,200,0
12,27,0.417,4.0,-100,0
12,28,0.836,4.0,-100,0
12,29,0.498,4.0,-100,0
12,30,0.636,4.0,650,0
12,31,0.59,3.0,-200,0
12,32,0.483,3.0,-200,0
12,33,0.759,3.0,-200,0
12,34,0.401,3.0,1050,0
12,35,2.0,,0,1
12,36,1.85,4.0,-100,0
12,37,0.438,4.0,-100,0
12,38,0.531,4.0,-100,0
12,39,0.351,4.0,-100,0
12,40,0.297,4.0,650,0
12,41,1.17,4.0,-100,0
12,42,0.49,4.0,-100,0
12,43,0.664,4.0,-100,0
12,44,0.381,4.0,-100,0
12,45,0.29,4.0,650,0
12,46,1.82,3.0,-200,0
12,47,0.439,3.0,-200,0
12,48,0.446,3.0,-200,0
12,49,0.411,3.0,-200,0
12,50,0.297,3.0,1050,0
12,51,1.77,1.0,200,0
12,52,0.43,1.0,200,0
12,53,0.499,1.0,200,0
12,54,0.286,1.0,200,0
12,55,0.346,2.0,100,0
12,56,0.403,2.0,100,0
12,57,0.396,2.0,100,0
12,58,0.441,2.0,100,0
12,59,0.331,4.0,-100,0
12,60,0.301,4.0,-100,0
12,61,0.569,4.0,-100,0
12,62,0.535,4.0,-100,0
12,63,0.324,4.0,650,0
12,64,0.483,4.0,-100,0
12,65,0.38,4.0,-100,0
12,66,0.433,4.0,-100,0
12,67,0.301,4.0,-100,0
12,68,0.482,4.0,650,0
12,69,0.515,3.0,-200,0
12,70,0.561,3.0,-200,0
12,71,0.614,3.0,-200,0
12,72,0.388,3.0,-200,0
12,73,0.397,3.0,1050,0
12,74,0.442,3.0,-200,0
12,75,0.232,3.0,-200,0
12,76,0.241,3.0,-200,0
12,77,0.277,3.0,-200,0
12,78,0.358,3.0,1050,0
12,79,0.581,3.0,-200,0
12,80,0.38,3.0,-200,0
12,81,0.413,3.0,-200,0
12,82,0.293,3.0,-200,0
12,83,0.259,3.0,1050,0
12,84,0.57,4.0,-100,0
12,85,0.438,4.0,-100,0
12,86,0.302,4.0,-100,0
12,87,0.449,4.0,-100,0
12,88,0.412,4.0,650,0
12,89,0.51,4.0,-100,0
12,90,0.415,4.0,-100,0
12,91,0.387,4.0,-100,0
12,92,0.529,4.0,-100,0
12,93,0.424,4.0,650,0
12,94,0.381,4.0,-100,0
12,95,0.49,4.0,-100,0
12,96,0.261,4.0,-100,0
12,97,1.08,4.0,-100,0
12,98,0.282,4.0,650,0
12,99,0.599,4.0,-100,0
12,100,0.481,4.0,-100,0
13,1,1.07,1.0,200,0
13,2,0.555,3.0,-200,0
13,3,0.542,1.0,200,0
13,4,0.628,1.0,200,0
13,5,0.214,1.0,200,0
13,6,0.586,1.0,-1050,0
13,7,0.384,2.0,100,0
13,8,0.627,2.0,100,0
13,9,0.431,4.0,-100,0
13,10,0.367,2.0,100,0
13,11,0.456,2.0,100,0
13,12,0.287,1.0,200,0
13,13,0.27,1.0,200,0
13,14,0.748,2.0,-650,0
13,15,0.316,1.0,200,0
13,16,0.293,1.0,200,0
13,17,0.576,1.0,-1050,0
13,18,0.353,4.0,-100,0
13,19,0.818,2.0,100,0
13,20,0.211,2.0,100,0
13,21,0.246,2.0,100,0
13,22,0.641,2.0,100,0
13,23,0.29,1.0,200,0
13,24,0.257,1.0,200,0
13,25,0.276,1.0,200,0
13,26,0.243,1.0,200,0
13,27,0.336,2.0,-650,0
13,28,0.416,2.0,100,0
13,29,0.222,2.0,100,0
13,30,0.251,2.0,100,0
13,31,2.0,,0,1
13,32,0.301,2.0,100,0
13,33,0.224,4.0,-100,0
13,34,0.173,1.0,-1050,0
13,35,0.591,1.0,200,0
13,36,0.206,1.0,200,0
13,37,0.193,1.0,200,0
13,38,0.32,1.0,200,0
13,39,0.313,2.0,-650,0
13,40,2.0,,0,1
13,41,0.283,2.0,100,0
13,42,0.297,2.0,100,0
13,43,0.235,2.0,100,0
13,44,0.467,2.0,100,0
13,45,1.07,3.0,-200,0
13,46,0.484,4.0,-100,0
13,47,0.299,1.0,-1050,0
13,48,0.341,1.0,200,0
13,49,0.269,1.0,200,0
13,50,0.217,1.0,200,0
13,51,0.414,1.0,200,0
13,52,0.265,1.0,200,0
13,53,0.216,1.0,200,0
13,54,0.169,1.0,200,0
13,55,0.209,2.0,100,0
13,56,0.444,2.0,100,0
13,57,0.251,2.0,100,0
13,58,0.204,2.0,100,0
13,59,0.31,4.0,-100,0
13,60,0.273,4.0,-100,0
13,61,0.279,4.0,-100,0
13,62,0.241,4.0,-100,0
13,63,1.6,4.0,650,0
13,64,1.36,3.0,-200,0
13,65,0.553,3.0,-200,0
13,66,0.299,3.0,-200,0
13,67,0.263,3.0,-200,0
13,68,0.292,3.0,1050,0
13,69,0.728,4.0,-100,0
13,70,0.285,4.0,-100,0
13,71,0.782,4.0,-100,0
13,72,0.238,4.0,-100,0
13,73,0.262,4.0,650,0
13,74,1.33,3.0,-200,0
13,75,1.46,3.0,-200,0
13,76,0.595,3.0,-200,0
13,77,0.259,3.0,-200,0
13,78,0.294,3.0,1050,0
13,79,0.659,4.0,-100,0
13,80,0.335,4.0,-100,0
13,81,0.345,4.0,-100,0
13,82,0.408,4.0,-100,0
13,83,0.201,4.0,650,0
13,84,0.353,3.0,-200,0
13,85,0.375,3.0,-200,0
13,86,0.444,3.0,-200,0
13,87,0.241,3.0,-200,0
13,88,0.401,3.0,1050,0
13,89,0.811,4.0,-100,0
13,90,0.255,4.0,-100,0
13,91,0.764,4.0,-100,0
13,92,0.457,4.0,-100,0
13,93,0.292,4.0,650,0
13,94,1.21,3.0,-200,0
13,95,0.753,3.0,-200,0
13,96,0.382,3.0,-200,0
13,97,0.286,3.0,-200,0
13,98,0.311,3.0,1050,0
13,99,0.28,3.0,-200,0
13,100,0.227,3.0,-200,0
14,1,0.87,1.0,200,0
14,2,1.02,1.0,200,0
14,3,0.586,1.0,200,0
14,4,0.405,1.0,200,0
14,5,0.426,1.0,-1050,0
14,6,0.501,2.0,100,0
14,7,0.435,3.0,-200,0
14,8,0.559,3.0,-200,0
14,9,0.415,4.0,-100,0
14,10,0.386,1.0,200,0
14,11,0.277,1.0,200,0
14,12,0.228,1.0,200,0
14,13,0.465,1.0,200,0
14,14,0.386,2.0,100,0
14,15,0.315,2.0,100,0
14,16,0.306,2.0,100,0
14,17,0.264,1.0,-1050,0
14,18,1.2,1.0,200,0
14,19,0.51,1.0,200,0
14,20,1.23,1.0,200,0
14,21,0.662,1.0,200,0
14,22,0.414,1.0,-1050,0
14,23,0.585,1.0,200,0
14,24,0.55,1.0,200,0
14,25,0.482,1.0,200,0
14,26,0.649,1.0,200,0
14,27,0.925,2.0,-650,0
14,28,0.342,2.0,100,0
14,29,0.336,2.0,100,0
14,30,0.456,2.0,100,0
14,31,0.343,2.0,100,0
14,32,0.319,2.0,-650,0
14,33,0.316,2.0,100,0
14,34,0.528,2.0,100,0
14,35,0.554,2.0,100,0
14,36,0.481,2.0,100,0
14,37,0.472,3.0,-200,0
14,38,0.537,3.0,-200,0
14,39,0.409,3.0,1050,0
14,40,1.17,4.0,-100,0
14,41,0.49,4.0,-100,0
14,42,0.46,4.0,-100,0
14,43,0.486,4.0,650,0
14,44,2.0,,0,1
14,45,1.82,1.0,-1050,0
14,46,0.608,1.0,200,0
14,47,0.298,1.0,200,0
14,48,0.316,1.0,200,0
14,49,0.681,1.0,200,0
14,50,1.82,2.0,-650,0
14,51,0.598,1.0,200,0
14,52,0.58,1.0,200,0
14,53,0.435,1.0,200,0
14,54,0.423,1.0,200,0
14,55,0.423,2.0,100,0
14,56,0.385,2.0,100,0
14,57,0.561,2.0,100,0
14,58,0.463,2.0,100,0
14,59,2.0,,0,1
14,60,0.6,3.0,-200,0
14,61,0.322,3.0,-200,0
14,62,0.405,3.0,-200,0
14,63,0.317,3.0,-200,0
14,64,0.881,3.0,1050,0
14,65,0.421,3.0,-200,0
14,66,0.338,3.0,-200,0
14,67,0.206,3.0,-200,0
14,68,0.439,3.0,-200,0
14,69,0.761,3.0,1050,0
14,70,0.734,3.0,-200,0
14,71,0.366,3.0,-200,0
14,72,0.353,3.0,-200,0
14,73,0.57,3.0,-200,0
14,74,0.313,3.0,1050,0
14,75,0.338,4.0,-100,0
14,76,0.526,4.0,-100,0
14,77,0.151,4.0,-100,0
14,78,0.376,4.0,-100,0
14,79,0.478,4.0,650,0
14,80,2.0,,0,1
14,81,0.336,1.0,-1050,0
14,82,0.087,1.0,200,0
14,83,0.342,1.0,200,0
14,84,0.38,1.0,200,0
14,85,0.772,1.0,200,0
14,86,0.537,1.0,-1050,0
14,87,0.295,1.0,200,0
14,88,0.406,1.0,200,0
14,89,0.513,1.0,200,0
14,90,0.408,1.0,200,0
14,91,0.417,3.0,-200,0
14,92,0.33,3.0,-200,0
14,93,0.448,3.0,-200,0
14,94,1.3,3.0,-200,0
14,95,0.453,3.0,1050,0
14,96,0.426,3.0,-200,0
14,97,0.388,3.0,-200,0
14,98,0.398,3.0,-200,0
14,99,0.445,3.0,-200,0
14,100,0.378,3.0,1050,0
15,1,0.707,1.0,200,0
15,2,0.318,2.0,100,0
15,3,0.284,1.0,200,0
15,4,0.957,1.0,200,0
15,5,0.705,1.0,200,0
15,6,0.363,1.0,-1050,0
15,7,0.586,1.0,200,0
15,8,0.401,1.0,200,0
15,9,0.36,1.0,200,0
15,10,0.582,3.0,-200,0
15,11,0.346,2.0,100,0
15,12,0.275,1.0,200,0
15,13,0.451,2.0,100,0
15,14,1.06,2.0,100,0
15,15,0.384,1.0,-1050,0
15,16,0.267,1.0,200,0
15,17,0.275,1.0,200,0
15,18,0.459,1.0,200,0
15,19,0.259,2.0,-650,0
15,20,0.73,3.0,-200,0
15,21,0.272,1.0,200,0
15,22,0.25,1.0,-1050,0
15,23,0.231,1.0,200,0
15,24,0.337,1.0,200,0
15,25,0.459,1.0,200,0
15,26,0.479,1.0,200,0
15,27,0.332,4.0,-100,0
15,28,0.272,2.0,100,0
15,29,0.296,1.0,-1050,0
15,30,0.642,1.0,200,0
15,31,0.229,1.0,200,0
15,32,0.411,1.0,200,0
15,33,0.243,1.0,200,0
15,34,0.348,1.0,-1050,0
15,35,0.286,1.0,200,0
15,36,0.244,1.0,200,0
15,37,0.289,1.0,200,0
15,38,0.276,1.0,200,0
15,39,0.42,4.0,-100,0
15,40,0.25,1.0,-1050,0
15,41,0.333,1.0,200,0
15,42,0.263,1.0,200,0
15,43,0.303,1.0,200,0
15,44,0.416,1.0,200,0
15,45,2.0,,0,1
15,46,0.668,3.0,-200,0
15,47,0.254,2.0,100,0
15,48,0.318,1.0,-1050,0
15,49,0.322,1.0,200,0
15,50,0.335,1.0,200,0
15,51,0.443,1.0,200,0
15,52,0.503,1.0,200,0
15,53,0.31,1.0,200,0
15,54,0.278,1.0,200,0
15,55,0.873,2.0,100,0
15,56,0.289,2.0,100,0
15,57,0.816,1.0,-1050,0
15,58,0.664,1.0,200,0
15,59,0.288,1.0,200,0
15,60,0.443,1.0,200,0
15,61,0.406,2.0,100,0
15,62,0.333,1.0,200,0
15,63,0.676,2.0,100,0
15,64,0.364,2.0,-650,0
15,65,0.25,1.0,-1050,0
15,66,0.429,1.0,200,0
15,67,0.324,1.0,200,0
15,68,0.764,1.0,200,0
15,69,0.256,1.0,200,0
15,70,0.319,2.0,100,0
15,71,0.309,2.0,100,0
15,72,0.508,2.0,100,0
15,73,0.782,1.0,-1050,0
15,74,0.347,2.0,100,0
15,75,0.375,2.0,-650,0
15,76,0.324,1.0,200,0
15,77,0.278,1.0,200,0
15,78,0.409,1.0,200,0
15,79,1.48,2.0,100,0
15,80,0.309,1.0,200,0
15,81,0.262,2.0,100,0
15,82,0.37,1.0,-1050,0
15,83,0.628,2.0,100,0
15,84,0.274,2.0,100,0
15,85,0.642,1.0,200,0
15,86,0.965,1.0,200,0
15,87,0.294,2.0,-650,0
15,88,0.441,2.0,100,0
15,89,0.0645,2.0,100,0
15,90,0.298,1.0,200,0
15,91,0.528,2.0,100,0
15,92,0.601,1.0,200,0
15,93,0.732,1.0,-1050,0
15,94,0.462,1.0,200,0
15,95,1.58,1.0,200,0
15,96,0.286,2.0,100,0
15,97,0.321,1.0,200,0
15,98,0.286,2.0,-650,0
15,99,0.761,2.0,100,0
15,100,0.88,1.0,200,0
16,1,2.0,,0,1
16,2,0.99,1.0,200,0
16,3,0.364,4.0,-100,0
16,4,0.223,2.0,100,0
16,5,0.218,1.0,200,0
16,6,0.266,1.0,200,0
16,7,0.183,1.0,200,0
16,8,0.305,1.0,-1050,0
16,9,0.383,2.0,100,0
16,10,0.387,1.0,200,0
16,11,0.277,2.0,100,0
16,12,0.475,1.0,200,0
16,13,0.238,2.0,100,0
16,14,0.199,1.0,200,0
16,15,0.362,1.0,200,0
16,16,0.223,2.0,-650,0
16,17,0.223,1.0,-1050,0
16,18,2.0,,0,1
16,19,0.959,3.0,-200,0
16,20,0.177,1.0,200,0
16,21,0.287,2.0,100,0
16,22,0.368,1.0,200,0
16,23,0.269,2.0,100,0
16,24,0.23,1.0,200,0
16,25,0.872,1.0,200,0
16,26,0.392,2.0,100,0
16,27,0.281,1.0,-1050,0
16,28,0.305,2.0,100,0
16,29,0.282,1.0,200,0
16,30,0.301,1.0,200,0
16,31,0.231,2.0,-650,0
16,32,0.355,3.0,-200,0
16,33,0.226,1.0,200,0
16,34,0.259,1.0,200,0
16,35,0.188,2.0,100,0
16,36,0.218,1.0,-1050,0
16,37,1.54,2.0,100,0
16,38,0.225,1.0,200,0
16,39,1.41,2.0,100,0
16,40,0.235,1.0,200,0
16,41,0.808,3.0,-200,0
16,42,0.476,1.0,200,0
16,43,0.196,1.0,200,0
16,44,0.163,2.0,100,0
16,45,0.789,1.0,-1050,0
16,46,0.22,1.0,200,0
16,47,0.397,1.0,200,0
16,48,0.817,1.0,200,0
16,49,0.348,3.0,-200,0
16,50,0.257,1.0,200,0
16,51,0.879,1.0,200,0
16,52,0.325,4.0,-100,0
16,53,0.219,1.0,200,0
16,54,0.265,1.0,200,0
16,55,0.218,1.0,200,0
16,56,0.334,4.0,-100,0
16,57,0.212,1.0,-1050,0
16,58,1.52,1.0,200,0
16,59,0.467,1.0,200,0
16,60,0.544,1.0,200,0
16,61,0.795,2.0,100,0
16,62,0.439,4.0,-100,0
16,63,0.609,1.0,200,0
16,64,0.228,1.0,-1050,0
16,65,0.263,1.0,200,0
16,66,0.247,2.0,100,0
16,67,0.263,1.0,200,0
16,68,0.281,1.0,200,0
16,69,0.259,2.0,100,0
16,70,0.483,4.0,-100,0
16,71,0.234,2.0,100,0
16,72,0.218,1.0,200,0
16,73,0.406,1.0,-1050,0
16,74,0.234,1.0,200,0
16,75,0.259,1.0,200,0
16,76,0.261,1.0,200,0
16,77,0.377,2.0,-650,0
16,78,0.214,1.0,200,0
16,79,0.61,1.0,-1050,0
16,80,1.19,1.0,200,0
16,81,0.261,1.0,200,0
16,82,0.282,1.0,200,0
16,83,0.529,4.0,650,0
16,84,0.275,1.0,200,0
16,85,0.19,4.0,-100,0
16,86,0.505,2.0,100,0
16,87,0.51,2.0,100,0
16,88,0.227,4.0,-100,0
16,89,0.268,4.0,-100,0
16,90,0.264,4.0,-100,0
16,91,0.312,1.0,-1050,0
16,92,0.19,1.0,200,0
16,93,0.264,1.0,200,0
16,94,0.276,1.0,200,0
16,95,0.26,4.0,650,0
16,96,0.23,1.0,200,0
16,97,0.93,2.0,100,0
16,98,0.714,2.0,100,0
16,99,0.247,4.0,-100,0
16,100,1.58,2.0,-650,0
17,1,1.19,1.0,200,0
17,2,0.403,1.0,200,0
17,3,0.283,2.0,100,0
17,4,1.0,3.0,-200,0
17,5,0.3,1.0,200,0
17,6,0.273,4.0,-100,0
17,7,0.25,2.0,100,0
17,8,0.289,3.0,-200,0
17,9,0.444,1.0,200,0
17,10,0.333,1.0,-1050,0
17,11,1.54,1.0,200,0
17,12,0.315,1.0,200,0
17,13,0.33,1.0,200,0
17,14,0.453,2.0,100,0
17,15,0.352,3.0,-200,0
17,16,0.274,1.0,200,0
17,17,0.301,1.0,-1050,0
17,18,0.762,1.0,200,0
17,19,0.326,1.0,200,0
17,20,0.499,1.0,200,0
17,21,0.302,1.0,200,0
17,22,0.592,1.0,-1050,0
17,23,0.232,2.0,100,0
17,24,0.436,2.0,-650,0
17,25,0.313,3.0,-200,0
17,26,0.367,2.0,100,0
17,27,0.4,1.0,200,0
17,28,0.765,1.0,200,0
17,29,0.37,1.0,200,0
17,30,0.422,1.0,200,0
17,31,0.356,1.0,-1050,0
17,32,0.364,1.0,200,0
17,33,0.287,1.0,200,0
17,34,0.43,1.0,200,0
17,35,0.427,1.0,200,0
17,36,1.28,1.0,-1050,0
17,37,0.388,2.0,100,0
17,38,0.506,2.0,100,0
17,39,1.53,2.0,100,0
17,40,0.515,2.0,-650,0
17,41,0.517,2.0,100,0
17,42,0.475,1.0,200,0
17,43,0.691,1.0,200,0
17,44,0.529,1.0,200,0
17,45,0.744,1.0,200,0
17,46,0.459,1.0,-1050,0
17,47,0.703,2.0,100,0
17,48,0.671,1.0,200,0
17,49,0.383,2.0,100,0
17,50,0.385,1.0,200,0
17,51,0.618,3.0,-200,0
17,52,0.447,1.0,200,0
17,53,0.505,1.0,200,0
17,54,0.416,1.0,200,0
17,55,1.0,1.0,200,0
17,56,1.9,2.0,100,0
17,57,0.859,2.0,100,0
17,58,0.381,1.0,-1050,0
17,59,0.355,1.0,200,0
17,60,0.309,1.0,200,0
17,61,1.88,1.0,200,0
17,62,0.729,1.0,200,0
17,63,0.288,4.0,-100,0
17,64,0.888,1.0,-1050,0
17,65,0.789,1.0,200,0
17,66,0.8,1.0,200,0
17,67,0.581,1.0,200,0
17,68,1.27,1.0,200,0
17,69,0.398,1.0,-1050,0
17,70,0.518,1.0,200,0
17,71,0.358,1.0,200,0
17,72,0.364,1.0,200,0
17,73,1.45,1.0,200,0
17,74,0.356,1.0,-1050,0
17,75,0.434,1.0,200,0
17,76,0.344,1.0,200,0
17,77,0.368,1.0,200,0
17,78,0.427,1.0,200,0
17,79,0.295,2.0,100,0
17,80,0.67,2.0,100,0
17,81,0.512,2.0,-650,0
17,82,0.0504,1.0,-1050,0
17,83,0.35,1.0,200,0
17,84,0.472,1.0,200,0
17,85,2.0,,0,1
17,86,0.732,1.0,200,0
17,87,0.41,2.0,100,0
17,88,0.776,2.0,100,0
17,89,0.369,1.0,200,0
17,90,0.341,1.0,-1050,0
17,91,0.468,1.0,200,0
17,92,0.633,1.0,200,0
17,93,0.394,1.0,200,0
17,94,0.97,2.0,100,0
17,95,0.879,2.0,100,0
17,96,0.391,2.0,-650,0
17,97,0.27,2.0,100,0
17,98,0.418,1.0,200,0
17,99,0.49,2.0,100,0
17,100,0.911,1.0,-1050,0
18,1,1.3,1.0,200,0
18,2,0.573,3.0,-200,0
18,3,0.607,4.0,-100,0
18,4,0.368,1.0,200,0
18,5,0.551,1.0,200,0
18,6,0.631,1.0,200,0
18,7,0.712,2.0,100,0
18,8,0.757,1.0,-1050,0
18,9,1.86,3.0,-200,0
18,10,0.537,2.0,100,0
18,11,0.482,4.0,-100,0
18,12,0.333,2.0,100,0
18,13,0.927,2.0,100,0
18,14,0.961,2.0,-650,0
18,15,0.541,1.0,200,0
18,16,0.579,1.0,200,0
18,17,0.614,1.0,200,0
18,18,1.6,4.0,-100,0
18,19,1.7,2.0,100,0
18,20,0.313,1.0,200,0
18,21,0.531,1.0,-1050,0
18,22,0.392,2.0,100,0
18,23,0.621,2.0,100,0
18,24,0.608,1.0,200,0
18,25,2.0,,0,1
18,26,0.399,1.0,200,0
18,27,0.492,2.0,100,0
18,28,0.304,1.0,200,0
18,29,0.38,1.0,200,0
18,30,0.314,2.0,-650,0
18,31,0.347,1.0,-1050,0
18,32,0.37,2.0,100,0
18,33,0.893,1.0,200,0
18,34,0.453,2.0,100,0
18,35,0.286,1.0,200,0
18,36,0.274,2.0,100,0
18,37,0.259,1.0,200,0
18,38,0.406,2.0,100,0
18,39,0.605,1.0,200,0
18,40,0.856,2.0,-650,0
18,41,0.696,4.0,-100,0
18,42,0.571,2.0,100,0
18,43,0.575,1.0,-1050,0
18,44,0.833,2.0,100,0
18,45,0.555,2.0,100,0
18,46,1.05,1.0,200,0
18,47,0.869,1.0,200,0
18,48,0.804,2.0,100,0
18,49,0.639,1.0,200,0
18,50,0.411,1.0,200,0
18,51,0.834,1.0,200,0
18,52,0.773,1.0,200,0
18,53,0.763,2.0,100,0
18,54,0.781,1.0,200,0
18,55,2.0,,0,1
18,56,0.804,2.0,100,0
18,57,0.415,1.0,200,0
18,58,0.428,2.0,100,0
18,59,0.493,1.0,-1050,0
18,60,1.03,2.0,100,0
18,61,0.717,2.0,-650,0
18,62,0.333,1.0,200,0
18,63,0.323,1.0,200,0
18,64,0.378,1.0,200,0
18,65,0.567,1.0,200,0
18,66,0.461,1.0,-1050,0
18,67,0.567,1.0,200,0
18,68,0.432,1.0,200,0
18,69,0.532,1.0,200,0
18,70,0.455,1.0,200,0
18,71,0.545,2.0,100,0
18,72,0.445,1.0,-1050,0
18,73,0.389,2.0,100,0
18,74,0.41,1.0,200,0
18,75,0.41,1.0,200,0
18,76,0.419,1.0,200,0
18,77,0.602,1.0,200,0
18,78,0.449,1.0,-1050,0
18,79,0.287,1.0,200,0
18,80,0.317,1.0,200,0
18,81,0.497,1.0,200,0
18,82,0.509,1.0,200,0
18,83,0.328,2.0,100,0
18,84,0.422,2.0,100,0
18,85,0.408,2.0,-650,0
18,86,0.68,3.0,-200,0
18,87,0.341,1.0,-1050,0
18,88,0.312,1.0,200,0
18,89,1.64,3.0,-200,0
18,90,0.52,1.0,200,0
18,91,0.533,1.0,200,0
18,92,0.498,1.0,200,0
18,93,0.574,2.0,100,0
18,94,0.659,2.0,100,0
18,95,0.421,2.0,100,0
18,96,0.372,2.0,100,0
18,97,1.24,1.0,-1050,0
18,98,0.513,1.0,200,0
18,99,0.439,1.0,200,0
18,100,0.762,1.0,200,0
19,1,1.07,1.0,200,0
19,2,0.34,1.0,200,0
19,3,0.447,1.0,200,0
19,4,0.453,1.0,200,0
19,5,0.245,1.0,-1050,0
19,6,0.271,4.0,-100,0
19,7,0.967,3.0,-200,0
19,8,0.208,1.0,200,0
19,9,0.342,2.0,100,0
19,10,0.271,1.0,200,0
19,11,0.355,4.0,-100,0
19,12,0.358,1.0,200,0
19,13,1.31,1.0,200,0
19,14,0.905,2.0,100,0
19,15,0.606,4.0,-100,0
19,16,0.225,1.0,-1050,0
19,17,0.703,1.0,200,0
19,18,0.32,1.0,200,0
19,19,0.289,1.0,200,0
19,20,0.299,2.0,100,0
19,21,2.0,,0,1
19,22,0.531,4.0,-100,0
19,23,0.401,1.0,200,0
19,24,0.311,2.0,100,0
19,25,0.508,2.0,-650,0
19,26,0.288,1.0,-1050,0
19,27,0.698,1.0,200,0
19,28,1.54,1.0,200,0
19,29,0.833,1.0,200,0
19,30,0.333,1.0,200,0
19,31,0.528,1.0,-1050,0
19,32,2.0,,0,1
19,33,0.423,1.0,200,0
19,34,0.353,1.0,200,0
19,35,0.65,1.0,200,0
19,36,0.469,1.0,200,0
19,37,0.304,2.0,100,0
19,38,0.396,1.0,-1050,0
19,39,0.925,1.0,200,0
19,40,0.368,1.0,200,0
19,41,0.779,1.0,200,0
19,42,0.412,2.0,100,0
19,43,0.428,4.0,650,0
19,44,1.18,1.0,200,0
19,45,0.269,2.0,100,0
19,46,0.844,4.0,-100,0
19,47,0.259,4.0,-100,0
19,48,0.371,4.0,-100,0
19,49,0.307,1.0,-1050,0
19,50,2.0,,0,1
19,51,0.679,1.0,200,0
19,52,0.452,2.0,100,0
19,53,0.314,3.0,-200,0
19,54,0.239,4.0,-100,0
19,55,0.666,1.0,200,0
19,56,0.286,2.0,100,0
19,57,1.07,3.0,-200,0
19,58,0.291,4.0,-100,0
19,59,0.46,2.0,100,0
19,60,0.453,4.0,-100,0
19,61,0.708,4.0,-100,0
19,62,0.43,4.0,650,0
19,63,2.0,,0,1
19,64,0.307,1.0,200,0
19,65,0.357,1.0,200,0
19,66,0.267,1.0,-1050,0
19,67,0.49,2.0,100,0
19,68,1.57,1.0,200,0
19,69,0.342,1.0,200,0
19,70,0.659,2.0,-650,0
19,71,0.457,2.0,100,0
19,72,0.647,1.0,200,0
19,73,0.346,1.0,200,0
19,74,0.32,1.0,-1050,0
19,75,0.301,2.0,100,0
19,76,0.353,2.0,100,0
19,77,0.26,2.0,100,0
19,78,0.307,2.0,-650,0
19,79,0.705,3.0,-200,0
19,80,0.262,3.0,-200,0
19,81,0.43,3.0,1050,0
19,82,2.0,,0,1
19,83,0.999,4.0,-100,0
19,84,1.16,4.0,-100,0
19,85,0.42,4.0,-100,0
19,86,0.238,4.0,-100,0
19,87,0.33,4.0,650,0
19,88,2.0,,0,1
19,89,0.771,3.0,-200,0
19,90,0.417,3.0,-200,0
19,91,1.36,3.0,-200,0
19,92,0.458,3.0,-200,0
19,93,0.391,3.0,1050,0
19,94,0.379,1.0,200,0
19,95,0.264,1.0,200,0
19,96,0.26,2.0,100,0
19,97,0.454,2.0,100,0
19,98,0.388,2.0,100,0
19,99,0.474,4.0,-100,0
19,100,1.25,4.0,-100,0
20,1,1.37,2.0,100,0
20,2,1.52,2.0,100,0
20,3,1.35,1.0,200,0
20,4,0.795,4.0,-100,0
20,5,0.767,3.0,-200,0
20,6,0.776,2.0,100,0
20,7,0.674,2.0,100,0
20,8,0.415,2.0,-650,0
20,9,2.0,,0,1
20,10,1.82,1.0,200,0
20,11,0.64,1.0,200,0
20,12,0.621,4.0,-100,0
20,13,2.0,,0,1
20,14,2.0,,0,1
20,15,1.3,2.0,100,0
20,16,1.17,2.0,100,0
20,17,1.24,1.0,200,0
20,18,1.62,1.0,-1050,0
20,19,2.0,,0,1
20,20,2.0,,0,1
20,21,1.87,2.0,100,0
20,22,0.835,2.0,100,0
20,23,0.772,1.0,200,0
20,24,0.595,2.0,-650,0
20,25,2.0,,0,1
20,26,0.971,1.0,200,0
20,27,1.02,4.0,-100,0
20,28,0.584,2.0,100,0
20,29,1.01,2.0,100,0
20,30,0.726,1.0,200,0
20,31,1.01,1.0,200,0
20,32,0.94,2.0,100,0
20,33,0.981,2.0,100,0
20,34,0.643,1.0,-1050,0
20,35,2.0,,0,1
20,36,1.5,3.0,-200,0
20,37,1.08,2.0,-650,0
20,38,0.72,1.0,200,0
20,39,0.454,1.0,200,0
20,40,0.679,2.0,100,0
20,41,1.21,2.0,100,0
20,42,0.572,1.0,200,0
20,43,0.582,1.0,200,0
20,44,0.87,2.0,100,0
20,45,1.01,2.0,100,0
20,46,0.601,1.0,-1050,0
20,47,2.0,,0,1
20,48,0.785,2.0,-650,0
20,49,2.0,,0,1
20,50,0.546,2.0,100,0
20,51,1.18,1.0,200,0
20,52,0.676,2.0,100,0
20,53,0.55,1.0,200,0
20,54,0.698,2.0,100,0
20,55,2.0,,0,1
20,56,1.91,1.0,200,0
20,57,0.707,2.0,100,0
20,58,0.819,1.0,200,0
20,59,0.637,2.0,100,0
20,60,0.56,1.0,-1050,0
20,61,0.851,2.0,-650,0
20,62,0.528,1.0,200,0
20,63,0.906,2.0,100,0
20,64,1.01,1.0,200,0
20,65,0.548,2.0,100,0
20,66,0.557,3.0,-200,0
20,67,1.02,2.0,100,0
20,68,0.698,1.0,200,0
20,69,0.669,2.0,100,0
20,70,0.414,1.0,200,0
20,71,0.558,2.0,-650,0
20,72,2.0,,0,1
20,73,0.737,1.0,-1050,0
20,74,2.0,,0,1
20,75,1.87,1.0,200,0
20,76,0.935,2.0,100,0
20,77,0.512,1.0,200,0
20,78,0.833,2.0,100,0
20,79,0.961,4.0,-100,0
20,80,1.05,1.0,200,0
20,81,0.685,2.0,100,0
20,82,0.446,1.0,200,0
20,83,0.39,2.0,100,0
20,84,1.17,4.0,-100,0
20,85,0.971,1.0,-1050,0
20,86,2.0,,0,1
20,87,0.657,2.0,-650,0
20,88,0.501,3.0,-200,0
20,89,0.584,1.0,200,0
20,90,1.68,1.0,200,0
20,91,0.918,2.0,100,0
20,92,0.698,2.0,100,0
20,93,2.0,,0,1
20,94,0.53,2.0,100,0
20,95,1.35,1.0,200,0
20,96,1.59,2.0,100,0
20,97,0.627,1.0,200,0
20,98,1.71,4.0,-100,0
20,99,1.42,1.0,-1050,0
20,100,2.0,,0,1
21,1,1.14,1.0,200,0
21,2,1.33,1.0,200,0
21,3,0.426,1.0,200,0
21,4,0.763,1.0,200,0
21,5,0.193,1.0,-1050,0
21,6,1.38,2.0,100,0
21,7,1.94,3.0,-200,0
21,8,0.67,4.0,-100,0
21,9,0.358,2.0,100,0
21,10,0.495,2.0,100,0
21,11,0.352,2.0,100,0
21,12,0.342,2.0,-650,0
21,13,0.336,1.0,200,0
21,14,0.478,1.0,200,0
21,15,0.358,1.0,200,0
21,16,0.277,2.0,100,0
21,17,0.294,2.0,100,0
21,18,0.712,2.0,100,0
21,19,0.258,1.0,200,0
21,20,0.31,1.0,-1050,0
21,21,0.284,2.0,100,0
21,22,0.324,2.0,-650,0
21,23,0.212,3.0,-200,0
21,24,2.0,,0,1
21,25,1.75,4.0,-100,0
21,26,0.29,1.0,200,0
21,27,0.447,1.0,200,0
21,28,0.38,1.0,200,0
21,29,0.481,2.0,100,0
21,30,0.437,2.0,100,0
21,31,0.347,2.0,100,0
21,32,0.484,2.0,100,0
21,33,0.411,1.0,200,0
21,34,0.656,1.0,-1050,0
21,35,0.52,2.0,-650,0
21,36,0.306,1.0,200,0
21,37,0.3,1.0,200,0
21,38,0.38,1.0,200,0
21,39,0.394,2.0,100,0
21,40,0.24,2.0,100,0
21,41,0.439,2.0,100,0
21,42,0.349,2.0,100,0
21,43,0.392,1.0,200,0
21,44,0.407,2.0,-650,0
21,45,2.0,,0,1
21,46,0.593,1.0,-1050,0
21,47,0.396,2.0,100,0
21,48,0.398,2.0,100,0
21,49,0.401,2.0,100,0
21,50,0.237,2.0,100,0
21,51,1.39,1.0,200,0
21,52,0.342,1.0,200,0
21,53,0.268,1.0,200,0
21,54,0.308,2.0,100,0
21,55,0.274,2.0,100,0
21,56,0.199,2.0,100,0
21,57,0.247,2.0,100,0
21,58,0.33,1.0,200,0
21,59,0.437,3.0,-200,0
21,60,0.379,2.0,-650,0
21,61,2.0,,0,1
21,62,1.03,2.0,100,0
21,63,0.309,2.0,100,0
21,64,0.351,2.0,100,0
21,65,0.221,2.0,100,0
21,66,0.336,1.0,-1050,0
21,67,0.472,2.0,-650,0
21,68,0.733,2.0,100,0
21,69,0.213,2.0,100,0
21,70,0.327,2.0,100,0
21,71,0.243,2.0,100,0
21,72,0.376,2.0,-650,0
21,73,0.33,2.0,100,0
21,74,0.372,2.0,100,0
21,75,0.342,2.0,100,0
21,76,0.216,2.0,100,0
21,77,0.163,1.0,200,0
21,78,0.255,1.0,200,0
21,79,0.304,1.0,200,0
21,80,0.939,4.0,-100,0
21,81,0.526,1.0,200,0
21,82,0.446,2.0,-650,0
21,83,0.239,1.0,-1050,0
21,84,0.339,2.0,100,0
21,85,0.291,2.0,100,0
21,86,0.185,2.0,100,0
21,87,0.182,2.0,100,0
21,88,1.14,1.0,200,0
21,89,0.253,1.0,200,0
21,90,0.233,1.0,200,0
21,91,0.427,1.0,200,0
21,92,0.564,1.0,-1050,0
21,93,0.787,2.0,-650,0
21,94,0.353,2.0,100,0
21,95,0.251,2.0,100,0
21,96,0.221,2.0,100,0
21,97,0.227,2.0,100,0
21,98,0.298,1.0,200,0
21,99,0.435,1.0,200,0
21,100,0.238,1.0,200,0
22,1,1.71,1.0,200,0
22,2,1.04,2.0,100,0
22,3,0.598,1.0,200,0
22,4,0.939,3.0,-200,0
22,5,0.994,1.0,200,0
22,6,0.889,2.0,100,0
22,7,0.8,1.0,200,0
22,8,2.0,,0,1
22,9,1.51,2.0,100,0
22,10,1.06,3.0,-200,0
22,11,0.486,4.0,-100,0
22,12,1.1,1.0,-1050,0
22,13,0.861,2.0,100,0
22,14,0.973,2.0,-650,0
22,15,1.08,3.0,-200,0
22,16,0.695,1.0,200,0
22,17,0.586,3.0,-200,0
22,18,1.42,1.0,200,0
22,19,0.902,2.0,100,0
22,20,1.04,1.0,200,0
22,21,0.5,2.0,100,0
22,22,1.44,1.0,200,0
22,23,0.789,2.0,100,0
22,24,1.66,1.0,-1050,0
22,25,1.91,2.0,100,0
22,26,0.907,1.0,200,0
22,27,0.79,2.0,-650,0
22,28,1.79,3.0,1050,0
22,29,0.639,3.0,-200,0
22,30,0.684,4.0,-100,0
22,31,0.662,1.0,200,0
22,32,1.07,2.0,100,0
22,33,0.765,3.0,-200,0
22,34,0.891,3.0,-200,0
22,35,0.777,1.0,200,0
22,36,0.559,2.0,100,0
22,37,1.61,1.0,200,0
22,38,0.595,2.0,100,0
22,39,0.469,1.0,-1050,0
22,40,1.66,2.0,100,0
22,41,0.657,2.0,-650,0
22,42,0.878,3.0,-200,0
22,43,2.0,,0,1
22,44,0.777,1.0,200,0
22,45,0.691,1.0,200,0
22,46,0.667,1.0,200,0
22,47,0.416,2.0,100,0
22,48,0.795,1.0,200,0
22,49,0.741,2.0,100,0
22,50,0.836,1.0,-1050,0
22,51,2.0,,0,1
22,52,0.7,1.0,200,0
22,53,0.659,2.0,100,0
22,54,0.78,1.0,200,0
22,55,1.22,3.0,-200,0
22,56,0.555,1.0,200,0
22,57,0.687,1.0,200,0
22,58,0.675,1.0,-1050,0
22,59,0.576,2.0,100,0
22,60,0.562,1.0,200,0
22,61,1.17,1.0,200,0
22,62,0.784,2.0,100,0
22,63,0.622,1.0,200,0
22,64,0.714,1.0,200,0
22,65,0.404,2.0,100,0
22,66,0.666,1.0,-1050,0
22,67,1.58,1.0,200,0
22,68,0.516,1.0,200,0
22,69,0.715,2.0,-650,0
22,70,0.959,3.0,-200,0
22,71,2.0,,0,1
22,72,1.09,1.0,200,0
22,73,0.488,2.0,100,0
22,74,0.494,1.0,200,0
22,75,1.17,2.0,100,0
22,76,0.466,1.0,-1050,0
22,77,1.04,2.0,100,0
22,78,0.803,2.0,100,0
22,79,0.798,2.0,-650,0
22,80,1.61,1.0,200,0
22,81,2.0,,0,1
22,82,0.757,2.0,100,0
22,83,0.989,2.0,100,0
22,84,0.648,2.0,100,0
22,85,0.539,2.0,100,0
22,86,0.581,2.0,-650,0
22,87,1.12,2.0,100,0
22,88,0.6,2.0,100,0
22,89,2.0,,0,1
22,90,0.436,1.0,200,0
22,91,0.869,1.0,200,0
22,92,1.01,2.0,100,0
22,93,0.407,2.0,100,0
22,94,1.15,1.0,200,0
22,95,0.973,1.0,-1050,0
22,96,2.0,,0,1
22,97,0.568,1.0,200,0
22,98,1.36,1.0,200,0
22,99,1.85,1.0,200,0
22,100,0.547,2.0,-650,0
23,1,1.31,2.0,100,0
23,2,1.92,1.0,200,0
23,3,1.07,1.0,200,0
23,4,0.719,3.0,-200,0
23,5,0.455,1.0,200,0
23,6,1.12,1.0,200,0
23,7,1.25,4.0,-100,0
23,8,1.63,1.0,-1050,0
23,9,0.824,2.0,100,0
23,10,0.469,4.0,-100,0
23,11,0.434,3.0,-200,0
23,12,1.75,2.0,100,0
23,13,0.823,1.0,200,0
23,14,1.0,1.0,200,0
23,15,0.485,1.0,200,0
23,16,0.525,3.0,-200,0
23,17,0.442,3.0,-200,0
23,18,0.949,4.0,-100,0
23,19,0.647,4.0,-100,0
23,20,0.302,1.0,200,0
23,21,0.466,1.0,-1050,0
23,22,1.03,4.0,650,0
23,23,0.745,3.0,1050,0
23,24,1.47,1.0,200,0
23,25,1.84,2.0,100,0
23,26,1.4,4.0,-100,0
23,27,0.298,4.0,-100,0
23,28,0.359,4.0,-100,0
23,29,0.577,4.0,-100,0
23,30,0.831,4.0,650,0
23,31,0.882,3.0,-200,0
23,32,1.99,2.0,-650,0
23,33,0.447,4.0,-100,0
23,34,0.0574,1.0,200,0
23,35,0.426,1.0,200,0
23,36,0.364,3.0,-200,0
23,37,0.472,3.0,-200,0
23,38,1.71,1.0,200,0
23,39,0.43,3.0,-200,0
23,40,1.31,1.0,-1050,0
23,41,0.382,1.0,200,0
23,42,0.354,1.0,200,0
23,43,0.455,3.0,1050,0
23,44,1.22,2.0,100,0
23,45,0.308,4.0,-100,0
23,46,1.56,4.0,-100,0
23,47,0.401,2.0,100,0
23,48,0.542,4.0,-100,0
23,49,1.13,2.0,100,0
23,50,0.53,4.0,650,0
23,51,2.0,,0,1
23,52,0.42,3.0,-200,0
23,53,0.456,2.0,100,0
23,54,2.0,,0,1
23,55,0.204,4.0,-100,0
23,56,0.595,4.0,-100,0
23,57,0.234,1.0,200,0
23,58,0.296,1.0,200,0
23,59,0.282,4.0,-100,0
23,60,0.542,4.0,-100,0
23,61,0.64,4.0,650,0
23,62,0.353,1.0,200,0
23,63,0.587,1.0,200,0
23,64,0.687,1.0,-1050,0
23,65,0.327,1.0,200,0
23,66,0.814,1.0,200,0
23,67,0.528,2.0,100,0
23,68,0.649,2.0,100,0
23,69,0.661,2.0,100,0
23,70,0.509,2.0,-650,0
23,71,0.274,3.0,-200,0
23,72,0.388,3.0,-200,0
23,73,0.41,3.0,-200,0
23,74,0.275,3.0,1050,0
23,75,2.0,,0,1
23,76,0.346,3.0,-200,0
23,77,0.365,3.0,-200,0
23,78,0.564,3.0,-200,0
23,79,0.635,3.0,-200,0
23,80,0.944,3.0,1050,0
23,81,0.306,3.0,-200,0
23,82,0.527,3.0,-200,0
23,83,0.3,1.0,200,0
23,84,1.52,3.0,-200,0
23,85,0.49,3.0,-200,0
23,86,0.321,3.0,1050,0
23,87,0.35,1.0,200,0
23,88,0.27,3.0,-200,0
23,89,0.311,3.0,-200,0
23,90,0.452,3.0,-200,0
23,91,0.636,3.0,-200,0
23,92,0.274,3.0,1050,0
23,93,0.309,3.0,-200,0
23,94,0.736,2.0,100,0
23,95,0.254,3.0,-200,0
23,96,0.367,3.0,-200,0
23,97,0.413,3.0,-200,0
23,98,0.353,3.0,1050,0
23,99,0.524,3.0,-200,0
23,100,0.259,1.0,-1050,0
24,1,2.0,,0,1
24,2,0.868,1.0,200,0
24,3,1.21,1.0,200,0
24,4,0.817,2.0,100,0
24,5,1.1,4.0,-100,0
24,6,1.81,3.0,-200,0
24,7,0.328,1.0,200,0
24,8,0.355,2.0,100,0
24,9,2.0,,0,1
24,10,2.0,,0,1
24,11,1.69,1.0,200,0
24,12,1.04,4.0,-100,0
24,13,0.874,4.0,-100,0
24,14,0.758,1.0,-1050,0
24,15,0.545,3.0,-200,0
24,16,0.475,2.0,100,0
24,17,0.306,1.0,200,0
24,18,0.355,1.0,200,0
24,19,0.342,2.0,100,0
24,20,0.285,1.0,200,0
24,21,0.262,2.0,-650,0
24,22,0.281,1.0,200,0
24,23,0.297,1.0,-1050,0
24,24,0.362,1.0,200,0
24,25,0.308,1.0,200,0
24,26,0.335,1.0,200,0
24,27,0.275,1.0,200,0
24,28,0.271,1.0,-1050,0
24,29,0.367,1.0,200,0
24,30,0.39,1.0,200,0
24,31,0.23,1.0,200,0
24,32,0.269,2.0,100,0
24,33,0.545,3.0,-200,0
24,34,0.286,1.0,200,0
24,35,0.288,1.0,-1050,0
24,36,0.317,1.0,200,0
24,37,0.263,1.0,200,0
24,38,0.252,1.0,200,0
24,39,0.27,1.0,200,0
24,40,0.45,1.0,-1050,0
24,41,0.349,1.0,200,0
24,42,0.298,1.0,200,0
24,43,0.328,1.0,200,0
24,44,0.393,1.0,200,0
24,45,0.279,2.0,100,0
24,46,0.254,2.0,100,0
24,47,0.36,1.0,-1050,0
24,48,0.341,1.0,200,0
24,49,0.29,1.0,200,0
24,50,0.414,1.0,200,0
24,51,1.33,1.0,200,0
24,52,0.814,1.0,200,0
24,53,0.369,2.0,100,0
24,54,0.274,2.0,100,0
24,55,0.449,2.0,100,0
24,56,0.373,2.0,100,0
24,57,1.15,4.0,-100,0
24,58,0.314,1.0,200,0
24,59,0.25,1.0,200,0
24,60,0.281,1.0,-1050,0
24,61,0.806,1.0,200,0
24,62,0.4,1.0,200,0
24,63,0.324,1.0,200,0
24,64,0.357,1.0,200,0
24,65,0.285,2.0,-650,0
24,66,0.46,1.0,-1050,0
24,67,0.27,1.0,200,0
24,68,0.318,1.0,200,0
24,69,0.35,1.0,200,0
24,70,0.334,1.0,200,0
24,71,0.482,2.0,100,0
24,72,0.294,2.0,100,0
24,73,0.399,2.0,100,0
24,74,0.308,2.0,100,0
24,75,0.428,4.0,-100,0
24,76,0.393,4.0,-100,0
24,77,0.376,4.0,-100,0
24,78,0.234,4.0,650,0
24,79,0.794,3.0,-200,0
24,80,0.364,3.0,-200,0
24,81,0.396,3.0,-200,0
24,82,0.286,3.0,-200,0
24,83,0.237,3.0,1050,0
24,84,2.0,,0,1
24,85,0.23,3.0,-200,0
24,86,0.274,3.0,-200,0
24,87,0.397,3.0,-200,0
24,88,0.374,3.0,-200,0
24,89,0.267,3.0,1050,0
24,90,0.414,3.0,-200,0
24,91,0.394,3.0,-200,0
24,92,0.616,3.0,-200,0
24,93,0.403,3.0,-200,0
24,94,0.665,3.0,1050,0
24,95,0.866,3.0,-200,0
24,96,0.251,3.0,-200,0
24,97,0.279,3.0,-200,0
24,98,0.52,3.0,-200,0
24,99,0.38,3.0,1050,0
24,100,1.18,3.0,-200,0
25,1,1.03,1.0,200,0
25,2,0.415,1.0,200,0
25,3,0.872,1.0,200,0
25,4,0.635,2.0,100,0
25,5,0.532,4.0,-100,0
25,6,0.468,1.0,200,0
25,7,0.426,1.0,-1050,0
25,8,0.521,2.0,100,0
25,9,0.377,3.0,-200,0
25,10,0.279,2.0,100,0
25,11,0.385,4.0,-100,0
25,12,0.368,2.0,100,0
25,13,0.415,2.0,-650,0
25,14,0.583,2.0,100,0
25,15,0.511,3.0,-200,0
25,16,0.49,3.0,-200,0
25,17,0.272,1.0,200,0
25,18,0.376,1.0,200,0
25,19,0.338,4.0,-100,0
25,20,0.345,4.0,-100,0
25,21,0.272,4.0,650,0
25,22,0.28,4.0,-100,0
25,23,0.334,3.0,-200,0
25,24,0.286,3.0,1050,0
25,25,0.329,1.0,200,0
25,26,1.58,2.0,100,0
25,27,2.0,,0,1
25,28,0.459,3.0,-200,0
25,29,2.0,,0,1
25,30,0.987,1.0,200,0
25,31,0.451,1.0,-1050,0
25,32,0.255,3.0,-200,0
25,33,0.24,3.0,-200,0
25,34,0.31,3.0,-200,0
25,35,0.3,3.0,1050,0
25,36,0.3,3.0,-200,0
25,37,0.285,3.0,-200,0
25,38,0.305,3.0,-200,0
25,39,0.246,3.0,-200,0
25,40,0.239,3.0,1050,0
25,41,0.457,1.0,200,0
25,42,0.372,2.0,100,0
25,43,0.381,2.0,100,0
25,44,0.745,2.0,-650,0
25,45,0.287,2.0,100,0
25,46,0.427,2.0,100,0
25,47,0.266,2.0,100,0
25,48,0.252,2.0,100,0
25,49,1.04,4.0,-100,0
25,50,0.327,4.0,-100,0
25,51,0.501,1.0,200,0
25,52,0.425,2.0,100,0
25,53,0.446,3.0,-200,0
25,54,0.267,4.0,-100,0
25,55,0.261,1.0,200,0
25,56,0.365,2.0,100,0
25,57,0.248,3.0,-200,0
25,58,0.32,4.0,-100,0
25,59,0.268,1.0,200,0
25,60,0.408,2.0,100,0
25,61,0.272,3.0,-200,0
25,62,0.32,4.0,-100,0
25,63,0.322,1.0,200,0
25,64,0.305,2.0,100,0
25,65,0.32,3.0,-200,0
25,66,0.564,4.0,-100,0
25,67,0.284,1.0,-1050,0
25,68,0.966,3.0,1050,0
25,69,0.502,2.0,-650,0
25,70,0.274,4.0,650,0
25,71,0.336,1.0,200,0
25,72,0.292,2.0,100,0
25,73,0.357,1.0,200,0
25,74,0.34,2.0,100,0
25,75,0.583,1.0,200,0
25,76,0.43,2.0,100,0
25,77,0.98,2.0,100,0
25,78,0.5,1.0,200,0
25,79,1.3,2.0,-650,0
25,80,2.0,,0,1
25,81,1.22,1.0,-1050,0
25,82,0.26,1.0,200,0
25,83,0.266,1.0,200,0
25,84,0.306,1.0,200,0
25,85,0.345,2.0,100,0
25,86,0.385,2.0,100,0
25,87,0.334,2.0,100,0
25,88,0.456,1.0,200,0
25,89,0.376,2.0,100,0
25,90,0.279,2.0,-650,0
25,91,1.03,1.0,-1050,0
25,92,0.577,1.0,200,0
25,93,0.272,2.0,100,0
25,94,0.738,4.0,-100,0
25,95,0.231,2.0,100,0
25,96,0.254,4.0,-100,0
25,97,1.86,1.0,200,0
25,98,0.273,4.0,-100,0
25,99,0.312,1.0,200,0
25,100,0.371,4.0,-100,0
26,1,1.12,1.0,200,0
26,2,0.331,1.0,200,0
26,3,0.446,1.0,200,0
26,4,0.248,1.0,200,0
26,5,0.555,1.0,-1050,0
26,6,0.415,1.0,200,0
26,7,0.433,1.0,200,0
26,8,0.421,1.0,200,0
26,9,0.56,1.0,200,0
26,10,0.41,2.0,100,0
26,11,0.567,2.0,100,0
26,12,0.372,2.0,100,0
26,13,0.287,2.0,100,0
26,14,0.336,3.0,-200,0
26,15,0.337,2.0,-650,0
26,16,0.475,4.0,-100,0
26,17,0.341,2.0,100,0
26,18,0.425,2.0,100,0
26,19,0.516,2.0,100,0
26,20,0.312,3.0,-200,0
26,21,0.505,4.0,-100,0
26,22,0.51,2.0,100,0
26,23,0.393,1.0,-1050,0
26,24,0.293,1.0,200,0
26,25,0.369,1.0,200,0
26,26,0.578,1.0,200,0
26,27,0.47,1.0,200,0
26,28,0.334,3.0,-200,0
26,29,0.299,3.0,-200,0
26,30,0.528,4.0,-100,0
26,31,0.35,4.0,-100,0
26,32,0.351,4.0,650,0
26,33,0.358,3.0,1050,0
26,34,0.725,1.0,-1050,0
26,35,0.548,1.0,200,0
26,36,0.416,1.0,200,0
26,37,1.73,1.0,200,0
26,38,0.383,2.0,-650,0
26,39,0.279,2.0,100,0
26,40,1.76,2.0,100,0
26,41,0.63,2.0,100,0
26,42,0.371,4.0,-100,0
26,43,0.295,4.0,-100,0
26,44,0.388,4.0,-100,0
26,45,0.321,4.0,-100,0
26,46,0.355,4.0,650,0
26,47,0.549,4.0,-100,0
26,48,0.349,4.0,-100,0
26,49,0.533,4.0,-100,0
26,50,0.351,4.0,-100,0
26,51,1.27,4.0,-100,0
26,52,0.345,4.0,-100,0
26,53,0.308,4.0,-100,0
26,54,0.476,4.0,-100,0
26,55,0.409,4.0,650,0
26,56,0.498,4.0,-100,0
26,57,0.459,4.0,-100,0
26,58,0.488,4.0,-100,0
26,59,0.56,4.0,-100,0
26,60,0.568,4.0,650,0
26,61,0.498,4.0,-100,0
26,62,0.406,4.0,-100,0
26,63,0.442,4.0,-100,0
26,64,0.6,4.0,-100,0
26,65,0.615,4.0,650,0
26,66,1.15,1.0,200,0
26,67,0.416,1.0,200,0
26,68,0.82,1.0,200,0
26,69,0.534,2.0,100,0
26,70,0.61,2.0,100,0
26,71,0.467,2.0,100,0
26,72,0.383,3.0,-200,0
26,73,2.0,,0,1
26,74,0.292,3.0,-200,0
26,75,0.609,3.0,-200,0
26,76,1.28,3.0,-200,0
26,77,0.409,3.0,1050,0
26,78,0.3,3.0,-200,0
26,79,0.488,3.0,-200,0
26,80,0.522,3.0,-200,0
26,81,0.574,3.0,-200,0
26,82,0.52,3.0,1050,0
26,83,0.625,4.0,-100,0
26,84,0.597,4.0,-100,0
26,85,0.492,4.0,-100,0
26,86,0.605,4.0,-100,0
26,87,0.684,4.0,650,0
26,88,0.496,4.0,-100,0
26,89,0.349,4.0,-100,0
26,90,0.255,4.0,-100,0
26,91,0.335,4.0,-100,0
26,92,0.42,4.0,650,0
26,93,0.35,4.0,-100,0
26,94,0.387,4.0,-100,0
26,95,0.308,4.0,-100,0
26,96,0.295,4.0,-100,0
26,97,1.18,4.0,650,0
26,98,0.456,4.0,-100,0
26,99,0.299,4.0,-100,0
26,100,0.392,4.0,-100,0
27,1,0.772,1.0,200,0
27,2,0.572,2.0,100,0
27,3,0.265,1.0,200,0
27,4,0.575,4.0,-100,0
27,5,0.607,3.0,-200,0
27,6,0.221,1.0,200,0
27,7,0.45,1.0,200,0
27,8,0.26,1.0,-1050,0
27,9,0.795,3.0,-200,0
27,10,0.355,1.0,200,0
27,11,1.58,1.0,200,0
27,12,0.368,4.0,-100,0
27,13,0.738,2.0,100,0
27,14,0.345,3.0,-200,0
27,15,0.295,2.0,100,0
27,16,0.755,1.0,200,0
27,17,0.79,2.0,100,0
27,18,1.18,2.0,-650,0
27,19,0.429,1.0,200,0
27,20,0.458,1.0,-1050,0
27,21,1.3,3.0,-200,0
27,22,0.368,2.0,100,0
27,23,0.27,1.0,200,0
27,24,0.286,1.0,200,0
27,25,0.432,1.0,200,0
27,26,0.303,2.0,100,0
27,27,0.537,2.0,100,0
27,28,0.543,2.0,100,0
27,29,0.169,1.0,200,0
27,30,0.393,2.0,-650,0
27,31,0.27,1.0,-1050,0
27,32,0.269,1.0,200,0
27,33,0.323,1.0,200,0
27,34,0.21,1.0,200,0
27,35,0.32,2.0,100,0
27,36,0.412,2.0,100,0
27,37,0.344,1.0,200,0
27,38,0.387,2.0,100,0
27,39,0.286,2.0,100,0
27,40,1.55,1.0,-1050,0
27,41,0.418,1.0,200,0
27,42,0.486,1.0,200,0
27,43,0.302,1.0,200,0
27,44,0.282,2.0,-650,0
27,45,0.552,3.0,1050,0
27,46,0.297,4.0,-100,0
27,47,0.316,1.0,200,0
27,48,0.388,1.0,-1050,0
27,49,0.256,3.0,-200,0
27,50,0.605,3.0,-200,0
27,51,0.508,1.0,200,0
27,52,0.804,2.0,100,0
27,53,0.332,1.0,200,0
27,54,0.208,1.0,200,0
27,55,0.168,3.0,-200,0
27,56,0.42,2.0,100,0
27,57,0.442,1.0,200,0
27,58,0.599,1.0,-1050,0
27,59,0.556,2.0,100,0
27,60,0.33,2.0,100,0
27,61,0.316,1.0,200,0
27,62,0.242,1.0,200,0
27,63,0.401,1.0,200,0
27,64,0.289,2.0,-650,0
27,65,0.224,3.0,-200,0
27,66,0.534,3.0,-200,0
27,67,0.337,1.0,200,0
27,68,0.375,1.0,-1050,0
27,69,0.281,4.0,-100,0
27,70,0.757,2.0,100,0
27,71,0.275,1.0,200,0
27,72,0.264,1.0,200,0
27,73,0.724,1.0,200,0
27,74,1.17,3.0,-200,0
27,75,0.234,1.0,200,0
27,76,0.894,1.0,-1050,0
27,77,0.288,1.0,200,0
27,78,0.231,1.0,200,0
27,79,0.464,1.0,200,0
27,80,0.284,1.0,200,0
27,81,0.226,1.0,-1050,0
27,82,1.2,2.0,100,0
27,83,0.215,1.0,200,0
27,84,0.342,2.0,100,0
27,85,0.339,2.0,100,0
27,86,0.254,1.0,200,0
27,87,0.187,2.0,-650,0
27,88,0.0286,3.0,1050,0
27,89,0.209,3.0,-200,0
27,90,0.326,1.0,200,0
27,91,0.277,1.0,200,0
27,92,0.499,1.0,-1050,0
27,93,0.607,3.0,-200,0
27,94,0.395,4.0,-100,0
27,95,0.764,4.0,-100,0
27,96,1.54,4.0,-100,0
27,97,0.307,1.0,200,0
27,98,0.283,1.0,200,0
27,99,0.416,1.0,200,0
27,100,0.246,2.0,100,0
28,1,0.941,4.0,-100,0
28,2,0.296,4.0,-100,0
28,3,0.265,3.0,-200,0
28,4,0.00915,1.0,200,0
28,5,0.244,1.0,200,0
28,6,0.286,2.0,100,0
28,7,0.304,1.0,200,0
28,8,0.237,1.0,200,0
28,9,0.257,1.0,-1050,0
28,10,0.238,2.0,100,0
28,11,0.322,4.0,-100,0
28,12,0.847,3.0,-200,0
28,13,0.308,4.0,-100,0
28,14,0.199,2.0,100,0
28,15,0.647,4.0,650,0
28,16,0.495,1.0,200,0
28,17,0.326,1.0,200,0
28,18,0.44,1.0,200,0
28,19,0.289,2.0,100,0
28,20,0.321,2.0,-650,0
28,21,0.396,4.0,-100,0
28,22,2.0,,0,1
28,23,0.378,3.0,-200,0
28,24,0.538,3.0,-200,0
28,25,0.299,3.0,1050,0
28,26,2.0,,0,1
28,27,0.34,4.0,-100,0
28,28,0.27,2.0,100,0
28,29,0.346,4.0,-100,0
28,30,0.578,2.0,100,0
28,31,0.445,4.0,-100,0
28,32,0.271,2.0,100,0
28,33,0.417,4.0,650,0
28,34,0.409,2.0,100,0
28,35,0.652,2.0,-650,0
28,36,1.05,4.0,-100,0
28,37,0.34,2.0,100,0
28,38,0.387,1.0,200,0
28,39,0.528,4.0,-100,0
28,40,0.366,2.0,100,0
28,41,0.508,4.0,-100,0
28,42,0.563,2.0,100,0
28,43,0.408,4.0,-100,0
28,44,0.389,2.0,100,0
28,45,0.388,4.0,650,0
28,46,0.413,2.0,-650,0
28,47,0.499,3.0,-200,0
28,48,0.503,1.0,-1050,0
28,49,0.413,3.0,-200,0
28,50,0.311,3.0,-200,0
28,51,1.6,3.0,-200,0
28,52,0.321,1.0,200,0
28,53,0.945,3.0,-200,0
28,54,0.263,1.0,200,0
28,55,0.238,3.0,-200,0
28,56,0.346,1.0,200,0
28,57,0.408,3.0,-200,0
28,58,0.432,1.0,200,0
28,59,0.606,3.0,1050,0
28,60,0.698,4.0,-100,0
28,61,0.283,2.0,100,0
28,62,0.316,4.0,-100,0
28,63,0.346,2.0,100,0
28,64,0.428,4.0,-100,0
28,65,0.78,4.0,-100,0
28,66,0.316,2.0,100,0
28,67,0.43,4.0,650,0
28,68,2.0,,0,1
28,69,0.218,1.0,-1050,0
28,70,0.353,3.0,-200,0
28,71,0.336,3.0,-200,0
28,72,0.308,3.0,-200,0
28,73,0.416,3.0,-200,0
28,74,0.326,3.0,1050,0
28,75,0.57,1.0,200,0
28,76,2.0,,0,1
28,77,0.374,1.0,200,0
28,78,0.595,1.0,200,0
28,79,1.12,2.0,100,0
28,80,0.462,4.0,-100,0
28,81,0.335,2.0,-650,0
28,82,0.402,4.0,-100,0
28,83,0.358,4.0,-100,0
28,84,0.496,4.0,-100,0
28,85,0.471,4.0,650,0
28,86,0.491,2.0,100,0
28,87,0.355,4.0,-100,0
28,88,0.325,2.0,100,0
28,89,0.477,4.0,-100,0
28,90,0.277,2.0,100,0
28,91,0.407,4.0,-100,0
28,92,0.418,2.0,100,0
28,93,0.545,4.0,-100,0
28,94,0.364,2.0,-650,0
28,95,0.287,4.0,650,0
28,96,0.876,1.0,200,0
28,97,0.338,1.0,-1050,0
28,98,0.308,1.0,200,0
28,99,0.397,3.0,-200,0
28,100,1.74,1.0,200,0
29,1,1.33,3.0,-200,0
29,2,0.454,1.0,200,0
29,3,0.431,2.0,100,0
29,4,0.41,2.0,100,0
29,5,0.48,2.0,100,0
29,6,0.936,2.0,100,0
29,7,2.0,,0,1
29,8,0.489,2.0,-650,0
29,9,0.844,1.0,200,0
29,10,1.02,4.0,-100,0
29,11,0.546,3.0,-200,0
29,12,2.0,,0,1
29,13,0.785,2.0,100,0
29,14,2.0,,0,1
29,15,0.605,1.0,200,0
29,16,0.538,3.0,-200,0
29,17,0.967,4.0,-100,0
29,18,0.721,1.0,200,0
29,19,2.0,,0,1
29,20,0.617,3.0,-200,0
29,21,0.325,2.0,100,0
29,22,0.482,1.0,-1050,0
29,23,0.832,3.0,1050,0
29,24,0.281,3.0,-200,0
29,25,0.504,2.0,100,0
29,26,0.504,1.0,200,0
29,27,0.307,3.0,-200,0
29,28,0.296,4.0,-100,0
29,29,0.388,2.0,100,0
29,30,0.861,2.0,-650,0
29,31,0.318,1.0,200,0
29,32,0.293,3.0,-200,0
29,33,0.757,1.0,200,0
29,34,0.552,1.0,200,0
29,35,2.0,,0,1
29,36,0.377,4.0,-100,0
29,37,0.29,3.0,-200,0
29,38,0.409,1.0,-1050,0
29,39,0.623,1.0,200,0
29,40,0.373,2.0,100,0
29,41,0.568,3.0,1050,0
29,42,2.0,,0,1
29,43,2.0,,0,1
29,44,0.605,3.0,-200,0
29,45,0.254,2.0,100,0
29,46,0.379,2.0,100,0
29,47,2.0,,0,1
29,48,0.549,1.0,200,0
29,49,2.0,,0,1
29,50,0.22,3.0,-200,0
29,51,2.0,,0,1
29,52,1.12,3.0,-200,0
29,53,0.522,2.0,100,0
29,54,0.38,1.0,200,0
29,55,0.282,4.0,-100,0
29,56,0.355,3.0,-200,0
29,57,2.0,,0,1
29,58,0.329,1.0,200,0
29,59,1.12,2.0,100,0
29,60,0.421,1.0,200,0
29,61,1.35,1.0,200,0
29,62,0.533,2.0,100,0
29,63,0.47,1.0,-1050,0
29,64,0.863,2.0,100,0
29,65,0.495,1.0,200,0
29,66,0.699,4.0,-100,0
29,67,2.0,,0,1
29,68,0.691,2.0,-650,0
29,69,0.3,1.0,200,0
29,70,1.18,3.0,-200,0
29,71,2.0,,0,1
29,72,2.0,,0,1
29,73,1.52,3.0,-200,0
29,74,0.579,2.0,100,0
29,75,1.24,4.0,-100,0
29,76,2.0,,0,1
29,77,0.298,3.0,1050,0
29,78,2.0,,0,1
29,79,0.426,2.0,100,0
29,80,0.453,1.0,200,0
29,81,0.577,3.0,-200,0
29,82,1.24,2.0,100,0
29,83,2.0,,0,1
29,84,0.389,3.0,-200,0
29,85,0.685,4.0,-100,0
29,86,2.0,,0,1
29,87,2.0,,0,1
29,88,2.0,,0,1
29,89,0.134,3.0,-200,0
29,90,2.0,,0,1
29,91,2.0,,0,1
29,92,0.443,3.0,-200,0
29,93,0.528,1.0,200,0
29,94,2.0,,0,1
29,95,2.0,,0,1
29,96,2.0,,0,1
29,97,2.0,,0,1
29,98,0.372,2.0,100,0
29,99,0.547,3.0,1050,0
29,100,1.3,3.0,-200,0
30,1,1.24,1.0,200,0
30,2,0.474,1.0,200,0
30,3,0.483,1.0,200,0
30,4,0.423,1.0,200,0
30,5,0.303,1.0,-1050,0
30,6,0.45,1.0,200,0
30,7,0.406,1.0,200,0
30,8,0.342,1.0,200,0
30,9,0.645,2.0,100,0
30,10,0.442,2.0,100,0
30,11,0.545,2.0,100,0
30,12,0.456,2.0,100,0
30,13,0.346,2.0,-650,0
30,14,0.487,2.0,100,0
30,15,0.492,2.0,100,0
30,16,0.336,2.0,100,0
30,17,0.372,1.0,200,0
30,18,0.66,3.0,-200,0
30,19,0.929,3.0,-200,0
30,20,0.736,3.0,-200,0
30,21,0.445,4.0,-100,0
30,22,0.424,4.0,-100,0
30,23,0.477,2.0,100,0
30,24,0.314,1.0,-1050,0
30,25,0.596,1.0,200,0
30,26,0.348,1.0,200,0
30,27,0.449,1.0,200,0
30,28,0.393,2.0,-650,0
30,29,0.541,1.0,200,0
30,30,0.349,1.0,-1050,0
30,31,0.498,1.0,200,0
30,32,0.367,1.0,200,0
30,33,0.417,1.0,200,0
30,34,0.461,1.0,200,0
30,35,0.398,1.0,-1050,0
30,36,0.636,1.0,200,0
30,37,0.295,1.0,200,0
30,38,0.543,1.0,200,0
30,39,0.382,1.0,200,0
30,40,0.533,2.0,100,0
30,41,0.66,1.0,-1050,0
30,42,0.602,2.0,100,0
30,43,0.773,1.0,200,0
30,44,0.327,1.0,200,0
30,45,0.337,1.0,200,0
30,46,0.437,2.0,100,0
30,47,0.406,2.0,100,0
30,48,0.829,2.0,-650,0
30,49,0.54,1.0,200,0
30,50,0.4,1.0,-1050,0
30,51,0.862,1.0,200,0
30,52,1.84,1.0,200,0
30,53,0.635,2.0,100,0
30,54,0.359,2.0,100,0
30,55,0.489,2.0,100,0
30,56,0.274,1.0,200,0
30,57,0.435,1.0,200,0
30,58,0.357,1.0,-1050,0
30,59,2.0,,0,1
30,60,0.334,4.0,-100,0
30,61,0.986,2.0,100,0
30,62,0.532,1.0,200,0
30,63,0.545,1.0,200,0
30,64,0.372,1.0,200,0
30,65,0.678,2.0,-650,0
30,66,0.842,1.0,200,0
30,67,0.286,1.0,-1050,0
30,68,0.467,1.0,200,0
30,69,0.411,1.0,200,0
30,70,0.336,1.0,200,0
30,71,0.296,1.0,200,0
30,72,0.353,2.0,100,0
30,73,0.497,2.0,100,0
30,74,0.5,2.0,100,0
30,75,1.08,1.0,-1050,0
30,76,0.621,1.0,200,0
30,77,0.303,1.0,200,0
30,78,0.345,1.0,200,0
30,79,0.638,1.0,200,0
30,80,0.615,2.0,100,0
30,81,0.336,2.0,-650,0
30,82,0.42,1.0,-1050,0
30,83,0.937,1.0,200,0
30,84,0.326,1.0,200,0
30,85,0.577,1.0,200,0
30,86,0.388,1.0,200,0
30,87,1.92,2.0,100,0
30,88,0.4,2.0,100,0
30,89,0.379,2.0,100,0
30,90,0.369,3.0,-200,0
30,91,0.808,4.0,-100,0
30,92,1.63,2.0,100,0
30,93,0.503,2.0,-650,0
30,94,0.722,1.0,-1050,0
30,95,0.598,1.0,200,0
30,96,0.298,1.0,200,0
30,97,0.415,1.0,200,0
30,98,0.395,1.0,200,0
30,99,0.516,2.0,100,0
30,100,1.54,2.0,100,0
31,1,1.11,1.0,200,0
31,2,0.463,2.0,100,0
31,3,0.239,1.0,200,0
31,4,0.287,1.0,200,0
31,5,0.759,1.0,200,0
31,6,0.495,3.0,-200,0
31,7,0.297,1.0,-1050,0
31,8,0.66,2.0,100,0
31,9,0.335,2.0,100,0
31,10,0.504,1.0,200,0
31,11,0.4,1.0,200,0
31,12,0.247,1.0,200,0
31,13,0.621,2.0,100,0
31,14,0.256,1.0,200,0
31,15,0.297,1.0,-1050,0
31,16,0.257,2.0,-650,0
31,17,0.343,3.0,-200,0
31,18,0.269,2.0,100,0
31,19,0.261,1.0,200,0
31,20,0.195,1.0,200,0
31,21,0.266,1.0,200,0
31,22,0.286,1.0,200,0
31,23,0.802,2.0,100,0
31,24,0.365,1.0,-1050,0
31,25,0.635,2.0,100,0
31,26,0.511,2.0,100,0
31,27,1.71,4.0,-100,0
31,28,0.323,1.0,200,0
31,29,0.269,1.0,200,0
31,30,0.301,1.0,200,0
31,31,0.274,1.0,200,0
31,32,0.27,1.0,-1050,0
31,33,0.476,2.0,-650,0
31,34,0.258,1.0,200,0
31,35,0.357,1.0,200,0
31,36,0.288,3.0,-200,0
31,37,0.272,1.0,200,0
31,38,0.217,1.0,200,0
31,39,0.206,1.0,-1050,0
31,40,0.382,3.0,-200,0
31,41,0.352,4.0,-100,0
31,42,0.3,2.0,100,0
31,43,0.268,1.0,200,0
31,44,0.329,1.0,200,0
31,45,0.265,1.0,200,0
31,46,0.27,1.0,200,0
31,47,0.608,2.0,100,0
31,48,0.423,1.0,-1050,0
31,49,0.371,2.0,100,0
31,50,0.444,1.0,200,0
31,51,1.34,1.0,200,0
31,52,0.425,1.0,200,0
31,53,0.585,1.0,200,0
31,54,0.336,1.0,200,0
31,55,0.275,2.0,100,0
31,56,1.53,4.0,-100,0
31,57,0.301,2.0,100,0
31,58,0.375,1.0,-1050,0
31,59,0.252,1.0,200,0
31,60,0.311,2.0,100,0
31,61,0.189,2.0,100,0
31,62,0.227,2.0,-650,0
31,63,0.14,1.0,200,0
31,64,0.268,1.0,200,0
31,65,0.532,1.0,200,0
31,66,0.281,1.0,-1050,0
31,67,0.346,3.0,-200,0
31,68,0.28,3.0,-200,0
31,69,0.273,3.0,-200,0
31,70,0.32,4.0,-100,0
31,71,0.372,1.0,200,0
31,72,0.241,2.0,100,0
31,73,0.231,1.0,200,0
31,74,0.402,2.0,100,0
31,75,0.356,1.0,200,0
31,76,0.282,2.0,100,0
31,77,0.259,1.0,200,0
31,78,0.253,2.0,100,0
31,79,0.284,1.0,-1050,0
31,80,0.643,3.0,-200,0
31,81,0.435,2.0,-650,0
31,82,0.326,1.0,200,0
31,83,0.421,1.0,200,0
31,84,0.354,1.0,200,0
31,85,0.301,1.0,200,0
31,86,0.263,1.0,-1050,0
31,87,0.511,2.0,100,0
31,88,0.884,3.0,1050,0
31,89,0.4,3.0,-200,0
31,90,0.355,2.0,100,0
31,91,0.354,1.0,200,0
31,92,0.293,2.0,100,0
31,93,0.925,1.0,200,0
31,94,0.379,2.0,100,0
31,95,0.364,2.0,-650,0
31,96,0.327,3.0,-200,0
31,97,0.29,3.0,-200,0
31,98,0.339,1.0,200,0
31,99,0.35,3.0,-200,0
31,100,0.253,1.0,200,0
32,1,0.983,1.0,200,0
32,2,0.551,4.0,-100,0
32,3,0.325,1.0,200,0
32,4,0.751,2.0,100,0
32,5,0.176,1.0,200,0
32,6,0.269,1.0,200,0
32,7,0.387,1.0,-1050,0
32,8,1.54,1.0,200,0
32,9,0.255,1.0,200,0
32,10,0.323,1.0,200,0
32,11,0.981,2.0,100,0
32,12,0.521,2.0,100,0
32,13,0.438,1.0,200,0
32,14,0.587,1.0,-1050,0
32,15,0.296,1.0,200,0
32,16,0.0332,1.0,200,0
32,17,2.0,,0,1
32,18,0.993,1.0,200,0
32,19,1.1,2.0,100,0
32,20,0.238,2.0,-650,0
32,21,0.791,1.0,200,0
32,22,0.495,1.0,-1050,0
32,23,1.25,1.0,200,0
32,24,0.481,1.0,200,0
32,25,0.459,1.0,200,0
32,26,0.26,1.0,200,0
32,27,0.558,3.0,-200,0
32,28,0.507,1.0,-1050,0
32,29,0.931,1.0,200,0
32,30,0.328,1.0,200,0
32,31,0.301,1.0,200,0
32,32,0.433,1.0,200,0
32,33,0.36,1.0,-1050,0
32,34,0.29,1.0,200,0
32,35,0.408,1.0,200,0
32,36,0.289,1.0,200,0
32,37,0.303,1.0,200,0
32,38,2.0,,0,1
32,39,0.447,3.0,-200,0
32,40,2.0,,0,1
32,41,0.281,1.0,-1050,0
32,42,1.33,1.0,200,0
32,43,0.316,1.0,200,0
32,44,0.379,1.0,200,0
32,45,0.433,1.0,200,0
32,46,0.912,2.0,100,0
32,47,0.281,1.0,-1050,0
32,48,0.387,1.0,200,0
32,49,0.275,1.0,200,0
32,50,0.247,1.0,200,0
32,51,0.548,1.0,200,0
32,52,0.336,1.0,200,0
32,53,0.322,1.0,200,0
32,54,0.417,1.0,200,0
32,55,0.24,1.0,-1050,0
32,56,0.25,1.0,200,0
32,57,0.274,1.0,200,0
32,58,0.198,1.0,200,0
32,59,0.261,1.0,200,0
32,60,0.422,2.0,100,0
32,61,0.251,1.0,-1050,0
32,62,0.33,1.0,200,0
32,63,0.343,1.0,200,0
32,64,0.452,1.0,200,0
32,65,0.538,1.0,200,0
32,66,0.435,1.0,-1050,0
32,67,2.0,,0,1
32,68,0.233,1.0,200,0
32,69,0.238,1.0,200,0
32,70,0.89,1.0,200,0
32,71,0.698,1.0,200,0
32,72,0.294,2.0,100,0
32,73,0.356,2.0,100,0
32,74,0.351,2.0,100,0
32,75,0.392,2.0,-650,0
32,76,1.31,1.0,-1050,0
32,77,0.368,3.0,-200,0
32,78,0.224,3.0,-200,0
32,79,0.276,3.0,-200,0
32,80,0.282,3.0,-200,0
32,81,0.379,4.0,-100,0
32,82,0.669,3.0,1050,0
32,83,2.0,,0,1
32,84,0.918,4.0,-100,0
32,85,0.391,4.0,-100,0
32,86,0.397,4.0,-100,0
32,87,0.288,4.0,650,0
32,88,0.267,1.0,200,0
32,89,0.518,1.0,200,0
32,90,0.292,1.0,200,0
32,91,0.469,1.0,200,0
32,92,0.465,2.0,100,0
32,93,0.925,2.0,100,0
32,94,0.429,2.0,100,0
32,95,0.348,2.0,100,0
32,96,0.284,2.0,-650,0
32,97,1.44,2.0,100,0
32,98,0.405,2.0,100,0
32,99,0.508,2.0,100,0
32,100,0.38,2.0,100,0
33,1,2.0,,0,1
33,2,2.0,,0,1
33,3,2.0,,0,1
33,4,0.234,2.0,100,0
33,5,0.242,2.0,100,0
33,6,1.05,2.0,100,0
33,7,1.45,1.0,200,0
33,8,2.0,,0,1
33,9,2.0,,0,1
33,10,0.962,2.0,100,0
33,11,1.13,1.0,200,0
33,12,1.21,1.0,200,0
33,13,2.0,,0,1
33,14,2.0,,0,1
33,15,0.839,3.0,-200,0
33,16,1.17,4.0,-100,0
33,17,1.8,1.0,200,0
33,18,0.259,1.0,-1050,0
33,19,2.0,,0,1
33,20,1.74,2.0,-650,0
33,21,2.0,,0,1
33,22,1.22,4.0,-100,0
33,23,0.566,3.0,-200,0
33,24,0.455,2.0,100,0
33,25,2.0,,0,1
33,26,1.85,1.0,200,0
33,27,0.461,1.0,200,0
33,28,2.0,,0,1
33,29,1.33,1.0,200,0
33,30,0.645,1.0,200,0
33,31,1.1,1.0,-1050,0
33,32,2.0,,0,1
33,33,1.65,2.0,100,0
33,34,0.304,1.0,200,0
33,35,1.33,1.0,200,0
33,36,0.389,1.0,200,0
33,37,0.231,1.0,200,0
33,38,0.609,1.0,-1050,0
33,39,2.0,,0,1
33,40,0.725,1.0,200,0
33,41,0.31,1.0,200,0
33,42,1.37,1.0,200,0
33,43,2.0,,0,1
33,44,2.0,,0,1
33,45,0.416,1.0,200,0
33,46,0.256,3.0,-200,0
33,47,2.0,,0,1
33,48,1.51,1.0,-1050,0
33,49,2.0,,0,1
33,50,0.451,1.0,200,0
33,51,1.4,2.0,100,0
33,52,0.445,2.0,100,0
33,53,0.403,2.0,100,0
33,54,0.356,1.0,200,0
33,55,2.0,,0,1
33,56,1.32,2.0,100,0
33,57,1.12,2.0,-650,0
33,58,1.17,1.0,200,0
33,59,0.32,1.0,200,0
33,60,0.245,1.0,200,0
33,61,0.205,1.0,-1050,0
33,62,0.217,1.0,200,0
33,63,0.308,1.0,200,0
33,64,1.05,1.0,200,0
33,65,1.02,4.0,-100,0
33,66,2.0,,0,1
33,67,1.02,4.0,-100,0
33,68,1.7,1.0,200,0
33,69,1.35,1.0,-1050,0
33,70,2.0,,0,1
33,71,1.97,1.0,200,0
33,72,1.5,1.0,200,0
33,73,0.863,1.0,200,0
33,74,1.81,2.0,100,0
33,75,0.449,2.0,100,0
33,76,2.0,,0,1
33,77,1.69,2.0,100,0
33,78,0.304,2.0,100,0
33,79,0.841,2.0,-650,0
33,80,0.981,1.0,200,0
33,81,2.0,,0,1
33,82,0.511,1.0,-1050,0
33,83,1.5,1.0,200,0
33,84,2.0,,0,1
33,85,0.311,1.0,200,0
33,86,1.44,1.0,200,0
33,87,1.23,2.0,100,0
33,88,2.0,,0,1
33,89,1.46,2.0,100,0
33,90,0.209,2.0,100,0
33,91,2.0,,0,1
33,92,0.692,2.0,100,0
33,93,2.0,,0,1
33,94,0.789,1.0,200,0
33,95,2.0,,0,1
33,96,2.0,,0,1
33,97,2.0,,0,1
33,98,0.978,2.0,-650,0
33,99,0.732,2.0,100,0
33,100,0.78,2.0,100,0
34,1,2.0,,0,1
34,2,0.575,3.0,-200,0
34,3,0.479,4.0,-100,0
34,4,0.418,2.0,100,0
34,5,0.353,1.0,200,0
34,6,0.294,1.0,200,0
34,7,0.556,1.0,200,0
34,8,0.326,1.0,200,0
34,9,0.856,2.0,100,0
34,10,0.407,1.0,-1050,0
34,11,0.268,4.0,-100,0
34,12,0.368,3.0,-200,0
34,13,0.232,2.0,100,0
34,14,0.665,2.0,100,0
34,15,0.396,2.0,-650,0
34,16,0.332,1.0,200,0
34,17,0.365,1.0,200,0
34,18,0.415,1.0,200,0
34,19,0.325,1.0,200,0
34,20,0.391,1.0,-1050,0
34,21,0.365,2.0,100,0
34,22,0.258,2.0,100,0
34,23,0.27,2.0,100,0
34,24,0.239,2.0,100,0
34,25,0.593,2.0,-650,0
34,26,0.476,3.0,-200,0
34,27,1.78,1.0,200,0
34,28,1.85,1.0,200,0
34,29,0.362,1.0,200,0
34,30,0.599,1.0,200,0
34,31,0.356,1.0,-1050,0
34,32,0.242,1.0,200,0
34,33,0.376,1.0,200,0
34,34,0.361,1.0,200,0
34,35,0.389,1.0,200,0
34,36,0.384,2.0,100,0
34,37,0.25,1.0,-1050,0
34,38,0.34,2.0,100,0
34,39,0.256,1.0,200,0
34,40,0.57,1.0,200,0
34,41,0.383,1.0,200,0
34,42,0.312,1.0,200,0
34,43,0.78,1.0,-1050,0
34,44,1.06,2.0,100,0
34,45,0.821,1.0,200,0
34,46,0.375,1.0,200,0
34,47,0.234,1.0,200,0
34,48,0.274,1.0,200,0
34,49,0.222,2.0,100,0
34,50,0.255,1.0,-1050,0
34,51,0.937,3.0,-200,0
34,52,0.649,2.0,100,0
34,53,0.218,1.0,200,0
34,54,0.263,1.0,200,0
34,55,0.185,1.0,200,0
34,56,0.29,1.0,200,0
34,57,0.696,1.0,-1050,0
34,58,1.14,2.0,100,0
34,59,0.268,2.0,100,0
34,60,0.319,2.0,100,0
34,61,0.255,2.0,-650,0
34,62,0.178,1.0,200,0
34,63,0.303,1.0,200,0
34,64,0.42,1.0,200,0
34,65,0.321,1.0,200,0
34,66,0.27,1.0,-1050,0
34,67,0.511,2.0,100,0
34,68,0.385,1.0,200,0
34,69,2.0,,0,1
34,70,1.05,1.0,200,0
34,71,0.359,1.0,200,0
34,72,0.365,4.0,-100,0
34,73,0.519,1.0,200,0
34,74,0.272,1.0,-1050,0
34,75,0.49,2.0,100,0
34,76,0.711,1.0,200,0
34,77,1.17,1.0,200,0
34,78,0.711,1.0,200,0
34,79,0.547,2.0,100,0
34,80,0.324,1.0,200,0
34,81,1.17,1.0,-1050,0
34,82,0.365,2.0,100,0
34,83,0.049,1.0,200,0
34,84,0.354,2.0,-650,0
34,85,0.235,1.0,200,0
34,86,0.229,3.0,-200,0
34,87,0.269,1.0,200,0
34,88,0.902,1.0,200,0
34,89,0.547,1.0,-1050,0
34,90,0.459,2.0,100,0
34,91,0.506,2.0,100,0
34,92,0.356,1.0,200,0
34,93,0.238,1.0,200,0
34,94,0.326,2.0,100,0
34,95,0.27,2.0,100,0
34,96,2.0,,0,1
34,97,0.317,2.0,-650,0
34,98,0.282,3.0,-200,0
34,99,0.416,1.0,200,0
34,100,0.244,1.0,200,0
35,1,1.37,1.0,200,0
35,2,1.15,2.0,100,0
35,3,0.669,3.0,-200,0
35,4,0.476,1.0,200,0
35,5,0.556,1.0,200,0
35,6,0.724,4.0,-100,0
35,7,0.426,2.0,100,0
35,8,0.736,1.0,200,0
35,9,0.882,1.0,-1050,0
35,10,0.841,4.0,-100,0
35,11,0.604,3.0,-200,0
35,12,0.479,2.0,100,0
35,13,0.572,2.0,100,0
35,14,0.687,2.0,-650,0
35,15,0.433,1.0,200,0
35,16,1.25,1.0,200,0
35,17,0.586,2.0,100,0
35,18,0.606,2.0,100,0
35,19,0.462,1.0,200,0
35,20,0.593,1.0,200,0
35,21,0.615,2.0,100,0
35,22,0.6,2.0,100,0
35,23,0.601,1.0,-1050,0
35,24,0.538,2.0,-650,0
35,25,1.79,3.0,-200,0
35,26,0.563,4.0,-100,0
35,27,0.493,1.0,200,0
35,28,0.569,1.0,200,0
35,29,0.513,2.0,100,0
35,30,0.583,2.0,100,0
35,31,0.576,1.0,200,0
35,32,0.544,1.0,200,0
35,33,0.591,2.0,100,0
35,34,0.564,2.0,100,0
35,35,0.574,1.0,-1050,0
35,36,1.41,2.0,-650,0
35,37,0.337,1.0,200,0
35,38,0.482,1.0,200,0
35,39,0.541,2.0,100,0
35,40,0.531,2.0,100,0
35,41,0.542,1.0,200,0
35,42,0.493,1.0,200,0
35,43,0.569,4.0,-100,0
35,44,0.421,1.0,-1050,0
35,45,0.717,3.0,-200,0
35,46,0.535,1.0,200,0
35,47,0.559,1.0,200,0
35,48,0.447,2.0,100,0
35,49,0.509,2.0,100,0
35,50,0.486,1.0,200,0
35,51,2.0,,0,1
35,52,0.406,1.0,200,0
35,53,0.787,2.0,100,0
35,54,0.426,1.0,200,0
35,55,0.404,1.0,200,0
35,56,0.427,2.0,100,0
35,57,0.582,1.0,200,0
35,58,0.533,2.0,100,0
35,59,0.355,1.0,-1050,0
35,60,0.979,2.0,100,0
35,61,1.37,2.0,-650,0
35,62,0.604,2.0,100,0
35,63,0.379,1.0,200,0
35,64,0.477,2.0,100,0
35,65,0.491,1.0,200,0
35,66,0.759,2.0,100,0
35,67,0.625,2.0,100,0
35,68,0.539,1.0,200,0
35,69,0.597,2.0,-650,0
35,70,0.901,2.0,100,0
35,71,0.382,1.0,200,0
35,72,0.668,1.0,-1050,0
35,73,0.769,2.0,100,0
35,74,0.723,2.0,100,0
35,75,0.658,2.0,100,0
35,76,0.917,1.0,200,0
35,77,0.44,1.0,200,0
35,78,0.525,1.0,200,0
35,79,0.691,1.0,200,0
35,80,0.601,2.0,-650,0
35,81,0.702,1.0,-1050,0
35,82,0.535,2.0,100,0
35,83,0.732,2.0,100,0
35,84,0.841,2.0,100,0
35,85,0.736,1.0,200,0
35,86,0.59,1.0,200,0
35,87,0.686,1.0,200,0
35,88,0.611,2.0,100,0
35,89,2.0,,0,1
35,90,0.555,3.0,-200,0
35,91,0.573,1.0,200,0
35,92,0.564,1.0,-1050,0
35,93,0.708,2.0,-650,0
35,94,0.854,1.0,200,0
35,95,0.538,1.0,200,0
35,96,0.403,1.0,200,0
35,97,0.529,2.0,100,0
35,98,0.528,2.0,100,0
35,99,0.933,2.0,100,0
35,100,0.583,1.0,200,0
36,1,0.882,3.0,-200,0
36,2,1.4,2.0,100,0
36,3,0.506,4.0,-100,0
36,4,0.353,1.0,200,0
36,5,0.402,1.0,200,0
36,6,0.339,1.0,200,0
36,7,0.629,1.0,200,0
36,8,0.982,1.0,-1050,0
36,9,0.346,2.0,100,0
36,10,0.522,3.0,-200,0
36,11,0.69,4.0,-100,0
36,12,0.79,1.0,200,0
36,13,0.648,1.0,200,0
36,14,0.681,1.0,200,0
36,15,0.89,2.0,100,0
36,16,1.38,2.0,100,0
36,17,1.53,3.0,-200,0
36,18,0.473,2.0,-650,0
36,19,0.476,4.0,-100,0
36,20,0.307,3.0,-200,0
36,21,0.358,1.0,200,0
36,22,0.41,1.0,-1050,0
36,23,1.77,3.0,1050,0
36,24,0.583,3.0,-200,0
36,25,0.58,2.0,100,0
36,26,0.663,4.0,-100,0
36,27,0.496,1.0,200,0
36,28,0.529,1.0,200,0
36,29,0.608,1.0,200,0
36,30,1.05,1.0,200,0
36,31,0.289,2.0,100,0
36,32,1.08,2.0,100,0
36,33,1.91,1.0,-1050,0
36,34,0.505,4.0,650,0
36,35,1.43,3.0,-200,0
36,36,0.347,4.0,-100,0
36,37,0.329,2.0,100,0
36,38,0.319,1.0,200,0
36,39,0.484,1.0,200,0
36,40,0.977,1.0,200,0
36,41,1.05,1.0,200,0
36,42,1.7,4.0,-100,0
36,43,0.895,3.0,-200,0
36,44,0.899,2.0,-650,0
36,45,0.415,4.0,-100,0
36,46,0.531,3.0,-200,0
36,47,0.337,1.0,-1050,0
36,48,0.511,4.0,-100,0
36,49,0.623,3.0,1050,0
36,50,1.11,1.0,200,0
36,51,0.702,1.0,200,0
36,52,0.518,1.0,200,0
36,53,0.343,1.0,200,0
36,54,0.514,1.0,200,0
36,55,2.0,,0,1
36,56,0.608,3.0,-200,0
36,57,0.786,4.0,-100,0
36,58,0.518,2.0,100,0
36,59,0.306,2.0,100,0
36,60,0.56,4.0,-100,0
36,61,0.876,3.0,-200,0
36,62,0.386,1.0,-1050,0
36,63,1.54,1.0,200,0
36,64,1.11,1.0,200,0
36,65,0.331,1.0,200,0
36,66,0.567,1.0,200,0
36,67,2.0,,0,1
36,68,0.348,1.0,-1050,0
36,69,1.35,1.0,200,0
36,70,0.469,1.0,200,0
36,71,0.624,4.0,-100,0
36,72,0.368,2.0,100,0
36,73,1.51,1.0,200,0
36,74,0.76,1.0,200,0
36,75,0.896,1.0,-1050,0
36,76,1.15,3.0,-200,0
36,77,0.735,4.0,-100,0
36,78,0.367,2.0,100,0
36,79,0.453,1.0,200,0
36,80,0.531,1.0,200,0
36,81,0.406,1.0,200,0
36,82,0.523,1.0,200,0
36,83,0.407,2.0,-650,0
36,84,0.429,3.0,-200,0
36,85,1.14,1.0,-1050,0
36,86,0.545,4.0,650,0
36,87,0.528,2.0,100,0
36,88,0.399,1.0,200,0
36,89,0.423,1.0,200,0
36,90,0.354,1.0,200,0
36,91,0.731,1.0,200,0
36,92,0.749,1.0,-1050,0
36,93,0.585,4.0,-100,0
36,94,0.776,2.0,100,0
36,95,0.392,1.0,200,0
36,96,0.369,1.0,200,0
36,97,0.539,1.0,200,0
36,98,0.524,3.0,1050,0
36,99,1.36,1.0,200,0
36,100,0.615,1.0,-1050,0
37,1,1.39,4.0,-100,0
37,2,0.671,1.0,200,0
37,3,0.281,1.0,200,0
37,4,0.291,1.0,200,0
37,5,0.372,1.0,200,0
37,6,0.524,3.0,-200,0
37,7,0.266,1.0,-1050,0
37,8,0.631,2.0,100,0
37,9,2.0,,0,1
37,10,0.802,4.0,-100,0
37,11,0.562,2.0,100,0
37,12,0.321,2.0,100,0
37,13,0.368,2.0,100,0
37,14,0.481,1.0,200,0
37,15,0.256,1.0,200,0
37,16,0.355,1.0,200,0
37,17,2.0,,0,1
37,18,0.827,1.0,200,0
37,19,0.567,1.0,-1050,0
37,20,0.293,1.0,200,0
37,21,0.262,1.0,200,0
37,22,0.304,1.0,200,0
37,23,0.489,1.0,200,0
37,24,0.311,1.0,-1050,0
37,25,0.394,1.0,200,0
37,26,0.31,1.0,200,0
37,27,0.35,1.0,200,0
37,28,1.03,1.0,200,0
37,29,0.748,2.0,-650,0
37,30,0.226,1.0,-1050,0
37,31,0.273,1.0,200,0
37,32,0.517,1.0,200,0
37,33,0.266,1.0,200,0
37,34,0.648,1.0,200,0
37,35,0.514,4.0,-100,0
37,36,0.5,3.0,-200,0
37,37,0.18,1.0,-1050,0
37,38,0.253,1.0,200,0
37,39,0.189,1.0,200,0
37,40,0.355,1.0,200,0
37,41,0.469,1.0,200,0
37,42,0.41,2.0,100,0
37,43,0.297,2.0,100,0
37,44,0.292,2.0,100,0
37,45,1.04,2.0,100,0
37,46,0.309,1.0,-1050,0
37,47,0.291,1.0,200,0
37,48,0.243,1.0,200,0
37,49,0.495,1.0,200,0
37,50,0.356,1.0,200,0
37,51,1.48,1.0,200,0
37,52,0.33,1.0,200,0
37,53,0.477,1.0,200,0
37,54,0.872,1.0,200,0
37,55,0.493,2.0,100,0
37,56,0.745,2.0,100,0
37,57,0.484,2.0,100,0
37,58,0.651,2.0,100,0
37,59,0.297,4.0,-100,0
37,60,0.464,4.0,-100,0
37,61,0.615,4.0,-100,0
37,62,0.252,1.0,-1050,0
37,63,0.252,1.0,200,0
37,64,0.249,1.0,200,0
37,65,0.512,1.0,200,0
37,66,0.346,1.0,200,0
37,67,1.52,2.0,-650,0
37,68,0.32,4.0,-100,0
37,69,0.447,4.0,650,0
37,70,1.35,3.0,-200,0
37,71,0.404,3.0,-200,0
37,72,0.351,3.0,-200,0
37,73,0.395,3.0,-200,0
37,74,0.32,3.0,1050,0
37,75,0.817,3.0,-200,0
37,76,0.473,3.0,-200,0
37,77,0.301,3.0,-200,0
37,78,0.329,3.0,-200,0
37,79,0.355,3.0,1050,0
37,80,0.687,3.0,-200,0
37,81,0.273,3.0,-200,0
37,82,0.407,3.0,-200,0
37,83,0.453,3.0,-200,0
37,84,0.508,3.0,1050,0
37,85,0.502,3.0,-200,0
37,86,0.405,3.0,-200,0
37,87,0.389,3.0,-200,0
37,88,0.524,3.0,-200,0
37,89,0.237,3.0,1050,0
37,90,0.265,3.0,-200,0
37,91,0.355,3.0,-200,0
37,92,0.382,3.0,-200,0
37,93,0.641,3.0,-200,0
37,94,0.408,3.0,1050,0
37,95,0.297,3.0,-200,0
37,96,0.0827,3.0,-200,0
37,97,0.296,3.0,-200,0
37,98,0.336,3.0,-200,0
37,99,0.356,3.0,1050,0
37,100,0.0184,3.0,-200,0
38,1,2.0,,0,1
38,2,0.487,1.0,200,0
38,3,0.628,2.0,100,0
38,4,0.564,1.0,200,0
38,5,0.319,1.0,200,0
38,6,0.476,1.0,200,0
38,7,0.472,1.0,-1050,0
38,8,1.11,1.0,200,0
38,9,0.346,4.0,-100,0
38,10,0.395,3.0,-200,0
38,11,0.391,2.0,100,0
38,12,0.808,1.0,200,0
38,13,0.713,3.0,-200,0
38,14,0.424,2.0,100,0
38,15,0.284,1.0,200,0
38,16,0.491,4.0,-100,0
38,17,0.269,1.0,200,0
38,18,0.796,3.0,-200,0
38,19,0.591,2.0,100,0
38,20,0.399,1.0,-1050,0
38,21,0.326,2.0,-650,0
38,22,0.375,1.0,200,0
38,23,0.258,1.0,200,0
38,24,0.285,2.0,100,0
38,25,0.581,2.0,100,0
38,26,0.448,3.0,-200,0
38,27,0.457,1.0,200,0
38,28,0.267,2.0,100,0
38,29,0.905,3.0,1050,0
38,30,2.0,,0,1
38,31,1.66,1.0,200,0
38,32,0.386,2.0,100,0
38,33,1.79,3.0,-200,0
38,34,0.424,4.0,-100,0
38,35,2.0,,0,1
38,36,0.247,1.0,-1050,0
38,37,1.19,1.0,200,0
38,38,0.302,1.0,200,0
38,39,0.358,1.0,200,0
38,40,1.19,1.0,200,0
38,41,0.376,2.0,-650,0
38,42,0.288,2.0,100,0
38,43,0.266,2.0,100,0
38,44,0.611,2.0,100,0
38,45,0.512,2.0,100,0
38,46,0.58,3.0,-200,0
38,47,2.0,,0,1
38,48,0.565,4.0,-100,0
38,49,0.506,4.0,650,0
38,50,2.0,,0,1
38,51,0.729,1.0,200,0
38,52,0.471,1.0,200,0
38,53,0.302,1.0,200,0
38,54,0.33,1.0,200,0
38,55,0.323,2.0,100,0
38,56,0.42,2.0,100,0
38,57,0.338,2.0,100,0
38,58,0.364,2.0,100,0
38,59,0.455,3.0,-200,0
38,60,0.578,3.0,-200,0
38,61,0.696,3.0,-200,0
38,62,0.445,3.0,-200,0
38,63,0.425,3.0,1050,0
38,64,1.44,4.0,-100,0
38,65,0.318,4.0,-100,0
38,66,0.715,4.0,-100,0
38,67,0.554,4.0,-100,0
38,68,0.577,4.0,650,0
38,69,2.0,,0,1
38,70,1.58,3.0,-200,0
38,71,0.412,3.0,-200,0
38,72,0.399,3.0,-200,0
38,73,0.404,3.0,-200,0
38,74,0.286,3.0,1050,0
38,75,1.73,4.0,-100,0
38,76,0.477,4.0,-100,0
38,77,0.307,4.0,-100,0
38,78,0.266,4.0,-100,0
38,79,0.311,4.0,650,0
38,80,1.93,2.0,-650,0
38,81,0.323,2.0,100,0
38,82,0.304,2.0,100,0
38,83,0.43,2.0,100,0
38,84,0.49,2.0,100,0
38,85,0.452,4.0,-100,0
38,86,0.367,4.0,-100,0
38,87,0.293,4.0,-100,0
38,88,0.565,4.0,-100,0
38,89,0.257,4.0,650,0
38,90,0.372,3.0,-200,0
38,91,0.35,3.0,-200,0
38,92,0.425,3.0,-200,0
38,93,0.404,3.0,-200,0
38,94,0.433,3.0,1050,0
38,95,2.0,,0,1
38,96,0.495,3.0,-200,0
38,97,0.273,3.0,-200,0
38,98,0.303,3.0,-200,0
38,99,0.369,3.0,-200,0
38,100,0.337,3.0,1050,0
39,1,0.809,2.0,100,0
39,2,0.386,1.0,200,0
39,3,0.447,4.0,-100,0
39,4,0.279,1.0,200,0
39,5,0.349,1.0,200,0
39,6,0.427,1.0,200,0
39,7,0.479,1.0,-1050,0
39,8,0.28,3.0,-200,0
39,9,0.328,2.0,100,0
39,10,0.408,2.0,100,0
39,11,0.43,2.0,100,0
39,12,0.406,4.0,-100,0
39,13,0.42,2.0,-650,0
39,14,0.403,1.0,200,0
39,15,0.472,1.0,200,0
39,16,0.464,1.0,200,0
39,17,0.359,3.0,-200,0
39,18,0.63,1.0,200,0
39,19,0.569,1.0,-1050,0
39,20,0.298,2.0,100,0
39,21,0.423,2.0,100,0
39,22,0.499,2.0,100,0
39,23,0.451,1.0,200,0
39,24,0.34,1.0,200,0
39,25,0.558,2.0,100,0
39,26,0.782,2.0,-650,0
39,27,0.359,1.0,200,0
39,28,0.548,1.0,200,0
39,29,0.394,1.0,-1050,0
39,30,0.432,3.0,-200,0
39,31,0.281,2.0,100,0
39,32,0.543,2.0,100,0
39,33,0.568,2.0,100,0
39,34,0.276,1.0,200,0
39,35,0.657,4.0,-100,0
39,36,0.391,1.0,200,0
39,37,1.94,2.0,100,0
39,38,0.312,2.0,-650,0
39,39,0.269,1.0,200,0
39,40,0.459,1.0,200,0
39,41,0.676,1.0,-1050,0
39,42,0.493,4.0,-100,0
39,43,0.348,3.0,-200,0
39,44,0.637,1.0,200,0
39,45,0.962,2.0,100,0
39,46,0.502,1.0,200,0
39,47,0.347,4.0,650,0
39,48,0.389,1.0,200,0
39,49,0.558,2.0,100,0
39,50,0.551,1.0,200,0
39,51,0.684,1.0,200,0
39,52,0.373,2.0,100,0
39,53,0.448,1.0,200,0
39,54,0.444,4.0,-100,0
39,55,0.38,1.0,200,0
39,56,0.407,2.0,100,0
39,57,0.376,1.0,200,0
39,58,0.419,4.0,-100,0
39,59,0.405,1.0,-1050,0
39,60,0.523,2.0,100,0
39,61,1.07,2.0,100,0
39,62,0.611,1.0,200,0
39,63,0.858,4.0,-100,0
39,64,0.798,1.0,200,0
39,65,1.01,2.0,-650,0
39,66,0.323,1.0,200,0
39,67,0.327,1.0,200,0
39,68,1.16,3.0,-200,0
39,69,0.634,1.0,-1050,0
39,70,0.444,4.0,-100,0
39,71,0.317,2.0,100,0
39,72,0.433,1.0,200,0
39,73,0.522,2.0,100,0
39,74,0.844,1.0,200,0
39,75,0.744,2.0,100,0
39,76,0.582,1.0,200,0
39,77,2.0,,0,1
39,78,0.745,1.0,200,0
39,79,0.495,2.0,100,0
39,80,0.314,1.0,-1050,0
39,81,0.368,2.0,-650,0
39,82,0.247,4.0,650,0
39,83,0.313,3.0,-200,0
39,84,0.441,2.0,100,0
39,85,0.426,1.0,200,0
39,86,2.0,,0,1
39,87,0.507,1.0,200,0
39,88,0.476,2.0,100,0
39,89,0.415,1.0,200,0
39,90,0.451,4.0,-100,0
39,91,0.584,2.0,100,0
39,92,0.55,1.0,200,0
39,93,0.6,2.0,100,0
39,94,0.392,4.0,-100,0
39,95,0.573,1.0,-1050,0
39,96,0.352,3.0,-200,0
39,97,0.501,2.0,-650,0
39,98,0.71,4.0,-100,0
39,99,0.525,1.0,200,0
39,100,0.381,2.0,100,0
40,1,1.3,1.0,200,0
40,2,0.605,1.0,200,0
40,3,0.504,1.0,200,0
40,4,0.442,1.0,200,0
40,5,0.61,1.0,-1050,0
40,6,0.953,1.0,200,0
40,7,0.589,2.0,100,0
40,8,0.68,2.0,100,0
40,9,0.603,2.0,100,0
40,10,0.387,3.0,-200,0
40,11,0.444,3.0,-200,0
40,12,0.479,4.0,-100,0
40,13,0.463,4.0,-100,0
40,14,0.462,1.0,200,0
40,15,0.567,1.0,200,0
40,16,0.885,1.0,200,0
40,17,0.553,1.0,-1050,0
40,18,0.629,1.0,200,0
40,19,0.629,1.0,200,0
40,20,0.843,1.0,200,0
40,21,0.616,1.0,200,0
40,22,0.489,2.0,100,0
40,23,0.601,2.0,-650,0
40,24,0.508,1.0,-1050,0
40,25,0.826,3.0,-200,0
40,26,1.64,4.0,-100,0
40,27,0.459,1.0,200,0
40,28,1.36,2.0,100,0
40,29,1.08,1.0,200,0
40,30,1.12,2.0,100,0
40,31,0.371,1.0,200,0
40,32,0.496,2.0,100,0
40,33,0.65,1.0,200,0
40,34,0.606,2.0,100,0
40,35,1.72,1.0,-1050,0
40,36,1.37,2.0,-650,0
40,37,0.557,1.0,200,0
40,38,0.313,1.0,200,0
40,39,0.815,1.0,200,0
40,40,0.352,1.0,200,0
40,41,0.663,2.0,100,0
40,42,0.54,2.0,100,0
40,43,0.478,2.0,100,0
40,44,0.472,2.0,100,0
40,45,0.697,2.0,-650,0
40,46,0.437,2.0,100,0
40,47,0.423,2.0,100,0
40,48,0.304,2.0,100,0
40,49,0.527,2.0,100,0
40,50,0.549,3.0,-200,0
40,51,0.973,1.0,200,0
40,52,0.517,1.0,200,0
40,53,0.403,1.0,200,0
40,54,0.35,1.0,200,0
40,55,0.487,2.0,100,0
40,56,0.383,2.0,100,0
40,57,0.346,2.0,100,0
40,58,0.374,2.0,100,0
40,59,0.333,4.0,-100,0
40,60,0.694,4.0,-100,0
40,61,0.333,3.0,-200,0
40,62,0.637,4.0,-100,0
40,63,1.17,4.0,-100,0
40,64,0.692,4.0,650,0
40,65,1.58,4.0,-100,0
40,66,0.566,4.0,-100,0
40,67,0.571,4.0,-100,0
40,68,0.56,4.0,-100,0
40,69,0.383,4.0,650,0
40,70,0.649,3.0,-200,0
40,71,0.368,3.0,-200,0
40,72,0.43,3.0,-200,0
40,73,0.54,3.0,1050,0
40,74,1.1,4.0,-100,0
40,75,0.433,4.0,-100,0
40,76,0.395,4.0,-100,0
40,77,0.436,4.0,-100,0
40,78,0.396,4.0,650,0
40,79,0.521,3.0,-200,0
40,80,0.467,3.0,-200,0
40,81,0.363,3.0,-200,0
40,82,0.32,3.0,-200,0
40,83,0.409,3.0,1050,0
40,84,0.87,4.0,-100,0
40,85,0.694,4.0,-100,0
40,86,0.433,4.0,-100,0
40,87,1.66,4.0,-100,0
40,88,0.635,4.0,650,0
40,89,1.49,4.0,-100,0
40,90,0.914,4.0,-100,0
40,91,0.438,4.0,-100,0
40,92,2.0,,0,1
40,93,0.481,4.0,-100,0
40,94,1.46,4.0,650,0
40,95,0.939,2.0,-650,0
40,96,0.753,2.0,100,0
40,97,1.04,3.0,-200,0
40,98,0.665,4.0,-100,0
40,99,0.404,4.0,-100,0
40,100,0.474,4.0,-100,0
41,1,1.08,1.0,200,0
41,2,0.406,2.0,100,0
41,3,0.372,3.0,-200,0
41,4,0.201,4.0,-100,0
41,5,0.491,1.0,200,0
41,6,0.452,1.0,200,0
41,7,0.415,1.0,200,0
41,8,0.516,2.0,100,0
41,9,0.746,3.0,-200,0
41,10,1.94,1.0,-1050,0
41,11,0.509,2.0,100,0
41,12,0.388,4.0,-100,0
41,13,1.06,3.0,-200,0
41,14,1.29,1.0,200,0
41,15,0.467,1.0,200,0
41,16,1.05,3.0,-200,0
41,17,0.549,2.0,100,0
41,18,1.03,1.0,200,0
41,19,0.645,1.0,200,0
41,20,0.692,2.0,-650,0
41,21,0.709,1.0,-1050,0
41,22,0.318,1.0,200,0
41,23,0.303,1.0,200,0
41,24,0.255,1.0,200,0
41,25,0.528,3.0,1050,0
41,26,2.0,,0,1
41,27,0.612,4.0,-100,0
41,28,0.783,1.0,200,0
41,29,0.596,2.0,100,0
41,30,0.543,3.0,-200,0
41,31,0.893,4.0,-100,0
41,32,0.865,1.0,-1050,0
41,33,0.347,2.0,100,0
41,34,0.321,1.0,200,0
41,35,0.328,1.0,200,0
41,36,0.364,1.0,200,0
41,37,0.443,4.0,650,0
41,38,0.345,4.0,-100,0
41,39,0.316,2.0,100,0
41,40,0.309,1.0,200,0
41,41,2.0,,0,1
41,42,0.263,4.0,-100,0
41,43,0.33,4.0,-100,0
41,44,0.514,4.0,-100,0
41,45,0.283,4.0,650,0
41,46,1.69,2.0,100,0
41,47,0.489,1.0,-1050,0
41,48,0.268,1.0,200,0
41,49,0.329,1.0,200,0
41,50,0.588,1.0,200,0
41,51,1.05,1.0,200,0
41,52,1.21,4.0,-100,0
41,53,0.31,4.0,-100,0
41,54,0.212,4.0,-100,0
41,55,0.575,4.0,-100,0
41,56,0.425,4.0,650,0
41,57,2.0,,0,1
41,58,0.232,4.0,-100,0
41,59,0.256,4.0,-100,0
41,60,0.252,4.0,-100,0
41,61,0.316,4.0,-100,0
41,62,0.744,4.0,650,0
41,63,0.678,2.0,100,0
41,64,0.341,1.0,200,0
41,65,1.33,1.0,200,0
41,66,1.18,3.0,-200,0
41,67,0.578,3.0,-200,0
41,68,0.724,3.0,-200,0
41,69,0.461,3.0,-200,0
41,70,0.362,3.0,1050,0
41,71,1.17,2.0,100,0
41,72,0.823,1.0,200,0
41,73,0.399,4.0,-100,0
41,74,0.0614,4.0,-100,0
41,75,0.577,3.0,-200,0
41,76,0.461,3.0,-200,0
41,77,0.256,3.0,-200,0
41,78,0.261,3.0,-200,0
41,79,0.815,3.0,1050,0
41,80,1.26,2.0,100,0
41,81,0.405,1.0,-1050,0
41,82,0.563,1.0,200,0
41,83,0.302,1.0,200,0
41,84,0.621,1.0,200,0
41,85,0.767,4.0,-100,0
41,86,0.351,4.0,-100,0
41,87,0.246,4.0,650,0
41,88,0.722,3.0,-200,0
41,89,0.707,3.0,-200,0
41,90,0.313,3.0,-200,0
41,91,0.427,3.0,-200,0
41,92,0.621,3.0,1050,0
41,93,0.977,1.0,200,0
41,94,0.569,2.0,100,0
41,95,0.419,4.0,-100,0
41,96,0.703,2.0,-650,0
41,97,2.0,,0,1
41,98,0.424,2.0,100,0
41,99,0.762,1.0,-1050,0
41,100,0.483,3.0,-200,0
42,1,1.15,1.0,200,0
42,2,0.631,1.0,200,0
42,3,0.757,1.0,200,0
42,4,0.844,1.0,200,0
42,5,0.504,3.0,-200,0
42,6,0.596,1.0,-1050,0
42,7,0.574,2.0,100,0
42,8,0.551,2.0,100,0
42,9,0.413,1.0,200,0
42,10,0.306,1.0,200,0
42,11,0.478,1.0,200,0
42,12,0.446,1.0,200,0
42,13,0.342,1.0,-1050,0
42,14,0.355,1.0,200,0
42,15,0.379,1.0,200,0
42,16,0.317,1.0,200,0
42,17,0.291,1.0,200,0
42,18,0.862,1.0,-1050,0
42,19,0.543,1.0,200,0
42,20,0.472,1.0,200,0
42,21,0.369,1.0,200,0
42,22,0.314,1.0,200,0
42,23,0.827,1.0,-1050,0
42,24,0.65,3.0,-200,0
42,25,0.645,4.0,-100,0
42,26,0.282,1.0,200,0
42,27,0.284,1.0,200,0
42,28,0.351,1.0,200,0
42,29,0.587,1.0,200,0
42,30,0.624,2.0,100,0
42,31,0.38,2.0,100,0
42,32,0.484,1.0,-1050,0
42,33,0.495,1.0,200,0
42,34,0.279,1.0,200,0
42,35,0.322,1.0,200,0
42,36,0.494,1.0,200,0
42,37,0.371,1.0,-1050,0
42,38,0.379,1.0,200,0
42,39,0.337,1.0,200,0
42,40,0.352,1.0,200,0
42,41,0.566,1.0,200,0
42,42,0.94,2.0,-650,0
42,43,0.504,1.0,-1050,0
42,44,0.377,1.0,200,0
42,45,0.393,1.0,200,0
42,46,0.593,1.0,200,0
42,47,0.436,1.0,200,0
42,48,0.269,3.0,-200,0
42,49,0.424,3.0,-200,0
42,50,0.56,3.0,1050,0
42,51,1.1,3.0,-200,0
42,52,0.632,3.0,-200,0
42,53,0.379,3.0,-200,0
42,54,0.623,3.0,-200,0
42,55,0.559,3.0,1050,0
42,56,0.648,1.0,200,0
42,57,0.438,1.0,200,0
42,58,0.326,1.0,200,0
42,59,0.265,1.0,200,0
42,60,0.749,3.0,-200,0
42,61,0.379,3.0,-200,0
42,62,0.352,3.0,-200,0
42,63,0.397,3.0,-200,0
42,64,0.352,3.0,1050,0
42,65,0.418,1.0,-1050,0
42,66,1.8,1.0,200,0
42,67,0.309,1.0,200,0
42,68,0.67,1.0,200,0
42,69,0.245,1.0,200,0
42,70,1.57,3.0,-200,0
42,71,0.349,3.0,-200,0
42,72,0.319,3.0,-200,0
42,73,0.404,3.0,-200,0
42,74,0.281,3.0,1050,0
42,75,0.571,4.0,-100,0
42,76,0.392,4.0,-100,0
42,77,0.296,4.0,-100,0
42,78,0.286,4.0,-100,0
42,79,0.472,4.0,650,0
42,80,0.837,2.0,100,0
42,81,0.505,3.0,-200,0
42,82,0.347,3.0,-200,0
42,83,0.275,3.0,-200,0
42,84,0.281,3.0,-200,0
42,85,0.314,3.0,1050,0
42,86,1.31,4.0,-100,0
42,87,0.3,4.0,-100,0
42,88,0.356,4.0,-100,0
42,89,0.294,4.0,-100,0
42,90,0.469,4.0,650,0
42,91,0.725,2.0,100,0
42,92,0.451,3.0,-200,0
42,93,0.388,3.0,-200,0
42,94,0.409,3.0,-200,0
42,95,0.371,3.0,-200,0
42,96,0.545,3.0,1050,0
42,97,2.0,,0,1
42,98,0.912,3.0,-200,0
42,99,0.396,3.0,-200,0
42,100,0.41,3.0,-200,0
43,1,1.62,1.0,200,0
43,2,0.602,1.0,200,0
43,3,0.417,1.0,200,0
43,4,1.12,4.0,-100,0
43,5,0.37,1.0,200,0
43,6,0.428,1.0,-1050,0
43,7,0.949,3.0,-200,0
43,8,0.353,2.0,100,0
43,9,0.28,4.0,-100,0
43,10,0.275,1.0,200,0
43,11,0.29,1.0,200,0
43,12,0.275,1.0,200,0
43,13,0.533,2.0,100,0
43,14,0.419,1.0,200,0
43,15,0.3,2.0,100,0
43,16,0.293,1.0,-1050,0
43,17,0.659,1.0,200,0
43,18,0.365,1.0,200,0
43,19,0.438,1.0,200,0
43,20,0.837,2.0,100,0
43,21,0.459,2.0,-650,0
43,22,0.318,1.0,200,0
43,23,0.696,1.0,-1050,0
43,24,1.06,1.0,200,0
43,25,0.405,1.0,200,0
43,26,0.439,1.0,200,0
43,27,0.296,1.0,200,0
43,28,0.31,2.0,100,0
43,29,0.33,2.0,100,0
43,30,0.461,2.0,100,0
43,31,0.356,3.0,-200,0
43,32,0.432,3.0,-200,0
43,33,0.371,2.0,100,0
43,34,0.414,3.0,-200,0
43,35,0.312,1.0,-1050,0
43,36,0.444,4.0,-100,0
43,37,0.976,2.0,-650,0
43,38,0.304,1.0,200,0
43,39,0.368,1.0,200,0
43,40,0.243,1.0,200,0
43,41,0.398,1.0,200,0
43,42,0.271,2.0,100,0
43,43,0.392,2.0,100,0
43,44,0.288,2.0,100,0
43,45,0.453,3.0,1050,0
43,46,1.59,2.0,100,0
43,47,0.393,4.0,-100,0
43,48,0.494,3.0,-200,0
43,49,1.62,3.0,-200,0
43,50,0.303,3.0,-200,0
43,51,0.897,3.0,-200,0
43,52,0.316,1.0,200,0
43,53,0.321,1.0,200,0
43,54,0.441,1.0,200,0
43,55,0.527,1.0,200,0
43,56,0.274,3.0,-200,0
43,57,0.471,3.0,-200,0
43,58,0.311,3.0,-200,0
43,59,0.272,3.0,1050,0
43,60,0.696,2.0,100,0
43,61,0.403,2.0,100,0
43,62,0.471,2.0,100,0
43,63,0.512,4.0,-100,0
43,64,0.403,4.0,-100,0
43,65,0.336,4.0,-100,0
43,66,0.535,4.0,-100,0
43,67,0.384,4.0,650,0
43,68,2.0,,0,1
43,69,1.03,1.0,-1050,0
43,70,0.476,3.0,-200,0
43,71,0.415,2.0,100,0
43,72,0.291,3.0,-200,0
43,73,0.357,3.0,-200,0
43,74,0.432,1.0,200,0
43,75,0.296,3.0,-200,0
43,76,0.269,1.0,200,0
43,77,0.391,3.0,1050,0
43,78,0.313,2.0,-650,0
43,79,0.229,4.0,-100,0
43,80,0.255,2.0,100,0
43,81,0.333,4.0,-100,0
43,82,0.641,1.0,200,0
43,83,0.378,3.0,-200,0
43,84,0.307,1.0,200,0
43,85,0.298,3.0,-200,0
43,86,0.297,1.0,-1050,0
43,87,0.289,3.0,-200,0
43,88,0.245,1.0,200,0
43,89,0.271,3.0,-200,0
43,90,0.459,3.0,1050,0
43,91,1.46,2.0,100,0
43,92,0.349,4.0,-100,0
43,93,0.355,2.0,100,0
43,94,0.507,4.0,-100,0
43,95,0.48,2.0,100,0
43,96,0.269,4.0,650,0
43,97,0.482,1.0,200,0
43,98,0.381,3.0,-200,0
43,99,0.295,1.0,200,0
43,100,0.255,3.0,-200,0
44,1,1.21,1.0,200,0
44,2,0.447,1.0,200,0
44,3,0.417,1.0,200,0
44,4,0.275,1.0,200,0
44,5,0.398,1.0,-1050,0
44,6,0.501,2.0,100,0
44,7,0.322,1.0,200,0
44,8,0.259,1.0,200,0
44,9,0.34,1.0,200,0
44,10,0.93,3.0,-200,0
44,11,0.288,1.0,200,0
44,12,0.309,1.0,-1050,0
44,13,0.298,4.0,-100,0
44,14,0.362,2.0,100,0
44,15,0.244,1.0,200,0
44,16,0.316,2.0,100,0
44,17,0.367,1.0,200,0
44,18,0.262,2.0,100,0
44,19,0.248,1.0,200,0
44,20,0.347,2.0,-650,0
44,21,0.305,1.0,200,0
44,22,0.24,3.0,-200,0
44,23,0.256,1.0,-1050,0
44,24,0.345,2.0,100,0
44,25,0.328,2.0,100,0
44,26,0.311,1.0,200,0
44,27,0.412,1.0,200,0
44,28,0.415,4.0,-100,0
44,29,0.279,1.0,200,0
44,30,0.49,1.0,200,0
44,31,0.314,1.0,-1050,0
44,32,0.374,1.0,200,0
44,33,0.309,1.0,200,0
44,34,0.443,1.0,200,0
44,35,0.413,1.0,200,0
44,36,0.275,4.0,-100,0
44,37,0.304,1.0,-1050,0
44,38,0.272,1.0,200,0
44,39,0.361,1.0,200,0
44,40,0.264,1.0,200,0
44,41,0.5,1.0,200,0
44,42,0.322,2.0,100,0
44,43,0.335,2.0,100,0
44,44,0.381,2.0,-650,0
44,45,0.597,1.0,-1050,0
44,46,0.3,1.0,200,0
44,47,0.287,1.0,200,0
44,48,0.369,1.0,200,0
44,49,0.45,1.0,200,0
44,50,0.302,2.0,100,0
44,51,0.549,1.0,200,0
44,52,0.297,1.0,200,0
44,53,0.246,1.0,200,0
44,54,0.287,1.0,200,0
44,55,0.39,2.0,100,0
44,56,0.276,2.0,100,0
44,57,0.264,3.0,-200,0
44,58,0.265,4.0,-100,0
44,59,0.261,1.0,-1050,0
44,60,0.426,2.0,100,0
44,61,0.287,2.0,100,0
44,62,0.225,1.0,200,0
44,63,0.287,1.0,200,0
44,64,0.323,1.0,200,0
44,65,0.244,1.0,200,0
44,66,0.262,4.0,-100,0
44,67,0.234,4.0,-100,0
44,68,0.309,4.0,-100,0
44,69,1.0,1.0,-1050,0
44,70,0.239,1.0,200,0
44,71,0.258,1.0,200,0
44,72,0.366,1.0,200,0
44,73,0.35,4.0,650,0
44,74,0.455,1.0,200,0
44,75,0.253,1.0,-1050,0
44,76,0.371,1.0,200,0
44,77,0.412,1.0,200,0
44,78,0.391,1.0,200,0
44,79,0.256,1.0,200,0
44,80,0.357,3.0,-200,0
44,81,0.334,4.0,-100,0
44,82,0.606,2.0,-650,0
44,83,0.658,2.0,100,0
44,84,0.264,2.0,100,0
44,85,0.254,1.0,-1050,0
44,86,0.249,1.0,200,0
44,87,0.229,1.0,200,0
44,88,0.304,1.0,200,0
44,89,0.256,1.0,200,0
44,90,0.36,4.0,-100,0
44,91,0.587,1.0,-1050,0
44,92,0.249,1.0,200,0
44,93,0.281,1.0,200,0
44,94,0.314,1.0,200,0
44,95,0.292,4.0,-100,0
44,96,0.261,3.0,-200,0
44,97,0.905,1.0,200,0
44,98,0.233,2.0,100,0
44,99,0.409,2.0,100,0
44,100,0.419,3.0,-200,0
45,1,1.34,1.0,200,0
45,2,1.25,2.0,100,0
45,3,1.46,3.0,-200,0
45,4,0.363,1.0,200,0
45,5,0.318,1.0,200,0
45,6,1.09,1.0,200,0
45,7,1.16,1.0,-1050,0
45,8,1.01,4.0,-100,0
45,9,0.305,2.0,100,0
45,10,0.671,3.0,-200,0
45,11,0.402,2.0,100,0
45,12,0.657,2.0,100,0
45,13,0.355,2.0,-650,0
45,14,0.519,1.0,200,0
45,15,1.42,3.0,-200,0
45,16,0.354,1.0,200,0
45,17,0.381,1.0,200,0
45,18,0.711,1.0,200,0
45,19,0.313,1.0,-1050,0
45,20,1.16,2.0,100,0
45,21,0.273,2.0,100,0
45,22,0.773,2.0,100,0
45,23,1.27,3.0,-200,0
45,24,0.235,1.0,200,0
45,25,0.464,1.0,200,0
45,26,0.436,1.0,200,0
45,27,0.52,2.0,100,0
45,28,0.259,2.0,-650,0
45,29,0.313,1.0,200,0
45,30,0.399,1.0,-1050,0
45,31,1.56,2.0,100,0
45,32,0.464,2.0,100,0
45,33,0.344,2.0,100,0
45,34,0.354,1.0,200,0
45,35,0.328,1.0,200,0
45,36,0.365,1.0,200,0
45,37,1.29,2.0,100,0
45,38,0.409,2.0,-650,0
45,39,0.662,1.0,200,0
45,40,1.03,1.0,-1050,0
45,41,0.749,2.0,100,0
45,42,0.307,2.0,100,0
45,43,0.464,2.0,100,0
45,44,0.265,1.0,200,0
45,45,0.236,1.0,200,0
45,46,0.509,1.0,200,0
45,47,0.453,2.0,100,0
45,48,0.404,1.0,200,0
45,49,0.392,1.0,-1050,0
45,50,0.988,2.0,-650,0
45,51,1.53,1.0,200,0
45,52,0.464,1.0,200,0
45,53,0.354,1.0,200,0
45,54,1.93,2.0,100,0
45,55,0.405,2.0,100,0
45,56,1.64,2.0,100,0
45,57,0.417,1.0,200,0
45,58,0.515,2.0,100,0
45,59,0.378,1.0,-1050,0
45,60,0.235,1.0,200,0
45,61,0.365,1.0,200,0
45,62,0.176,1.0,200,0
45,63,0.413,2.0,-650,0
45,64,0.342,2.0,100,0
45,65,0.227,2.0,100,0
45,66,0.308,2.0,100,0
45,67,0.399,4.0,-100,0
45,68,0.606,1.0,200,0
45,69,0.161,1.0,-1050,0
45,70,1.01,1.0,200,0
45,71,0.192,1.0,200,0
45,72,0.317,1.0,200,0
45,73,0.273,2.0,100,0
45,74,0.247,2.0,-650,0
45,75,1.22,2.0,100,0
45,76,0.217,2.0,100,0
45,77,0.2,2.0,100,0
45,78,0.298,1.0,200,0
45,79,0.338,1.0,-1050,0
45,80,0.26,1.0,200,0
45,81,0.563,1.0,200,0
45,82,0.278,1.0,200,0
45,83,0.505,2.0,100,0
45,84,0.286,2.0,-650,0
45,85,0.33,2.0,100,0
45,86,0.332,2.0,100,0
45,87,0.256,2.0,100,0
45,88,0.273,1.0,200,0
45,89,0.288,3.0,-200,0
45,90,0.392,1.0,-1050,0
45,91,0.291,1.0,200,0
45,92,0.4,1.0,200,0
45,93,0.392,1.0,200,0
45,94,0.353,2.0,100,0
45,95,0.546,1.0,200,0
45,96,0.529,2.0,-650,0
45,97,0.541,1.0,-1050,0
45,98,0.214,1.0,200,0
45,99,0.282,1.0,200,0
45,100,0.234,1.0,200,0
46,1,0.94,1.0,200,0
46,2,0.688,1.0,200,0
46,3,0.527,1.0,200,0
46,4,0.466,2.0,100,0
46,5,0.559,2.0,100,0
46,6,0.715,1.0,200,0
46,7,0.427,4.0,-100,0
46,8,0.355,1.0,-1050,0
46,9,0.902,3.0,-200,0
46,10,0.729,2.0,100,0
46,11,1.41,2.0,100,0
46,12,2.0,,0,1
46,13,0.461,4.0,-100,0
46,14,0.619,2.0,-650,0
46,15,0.441,1.0,200,0
46,16,0.793,1.0,200,0
46,17,1.11,3.0,-200,0
46,18,0.721,1.0,200,0
46,19,0.349,2.0,100,0
46,20,0.292,2.0,100,0
46,21,0.391,2.0,100,0
46,22,0.449,2.0,100,0
46,23,0.836,2.0,-650,0
46,24,0.361,1.0,200,0
46,25,0.333,1.0,-1050,0
46,26,1.48,3.0,-200,0
46,27,0.42,2.0,100,0
46,28,0.503,1.0,200,0
46,29,0.268,1.0,200,0
46,30,0.311,1.0,200,0
46,31,0.409,2.0,100,0
46,32,0.429,2.0,100,0
46,33,0.411,3.0,-200,0
46,34,2.0,,0,1
46,35,0.618,4.0,-100,0
46,36,0.304,1.0,200,0
46,37,0.594,1.0,-1050,0
46,38,0.621,2.0,100,0
46,39,0.708,2.0,-650,0
46,40,0.516,1.0,200,0
46,41,0.365,1.0,200,0
46,42,0.511,1.0,200,0
46,43,0.542,2.0,100,0
46,44,0.44,2.0,100,0
46,45,0.296,2.0,100,0
46,46,1.55,3.0,1050,0
46,47,1.7,4.0,-100,0
46,48,0.308,1.0,200,0
46,49,0.342,1.0,-1050,0
46,50,0.376,2.0,100,0
46,51,0.645,1.0,200,0
46,52,2.0,,0,1
46,53,0.526,1.0,200,0
46,54,0.33,1.0,200,0
46,55,0.307,2.0,100,0
46,56,0.361,2.0,100,0
46,57,0.297,2.0,100,0
46,58,0.372,3.0,-200,0
46,59,0.44,1.0,200,0
46,60,0.275,2.0,100,0
46,61,0.312,2.0,-650,0
46,62,1.31,1.0,-1050,0
46,63,0.376,3.0,-200,0
46,64,0.325,3.0,-200,0
46,65,0.313,3.0,-200,0
46,66,0.494,3.0,1050,0
46,67,0.362,1.0,200,0
46,68,0.562,1.0,200,0
46,69,0.433,2.0,100,0
46,70,0.312,2.0,100,0
46,71,0.704,4.0,-100,0
46,72,0.38,4.0,-100,0
46,73,0.308,4.0,-100,0
46,74,0.204,4.0,-100,0
46,75,0.33,4.0,650,0
46,76,1.28,1.0,200,0
46,77,0.43,2.0,100,0
46,78,0.339,4.0,-100,0
46,79,0.251,4.0,-100,0
46,80,0.382,4.0,-100,0
46,81,0.216,4.0,-100,0
46,82,0.217,4.0,650,0
46,83,0.51,2.0,100,0
46,84,0.33,2.0,-650,0
46,85,0.757,2.0,100,0
46,86,0.241,2.0,100,0
46,87,0.312,2.0,100,0
46,88,0.577,1.0,200,0
46,89,0.285,1.0,-1050,0
46,90,0.794,1.0,200,0
46,91,0.433,1.0,200,0
46,92,0.369,3.0,-200,0
46,93,0.267,3.0,-200,0
46,94,0.315,3.0,-200,0
46,95,0.312,3.0,-200,0
46,96,0.299,3.0,1050,0
46,97,1.37,3.0,-200,0
46,98,0.332,3.0,-200,0
46,99,0.282,3.0,-200,0
46,100,0.247,3.0,-200,0
47,1,1.24,1.0,200,0
47,2,0.684,1.0,200,0
47,3,2.0,,0,1
47,4,0.759,1.0,200,0
